"Subject" "Trial" "Condition" "Order" "Quantity" "Vagueness" "c_Vag" "Selection" "c_Sel" "Item" "c_Itm" "Target" "Ins" "switchResponse" "RT" "RT_log"
"1" "s01" 1 "Matching Crisp" "RtoL" "Large" "Crisp" -0.5 "Matching" 0.5 "06:15:24" -0.75 24 "Choose a square with the same number of dots as the target" "Expected" 1849 7.52240023138712
"2" "s01" 2 "Comparison Crisp" "RtoL" "Small" "Crisp" -0.5 "Comparison" -0.5 "16:25:34" -0.25 30 "Choose a square with fewer dots than the target" "Expected" 1789 7.48941208350872
"3" "s01" 3 "Comparison Crisp" "LtoR" "Large" "Crisp" -0.5 "Comparison" -0.5 "26:35:44" 0.25 30 "Choose a square with more dots than the target" "Expected" 1322 7.18690102041163
"4" "s01" 4 "Matching Vague" "LtoR" "Small" "Vague" 0.5 "Matching" 0.5 "36:45:54" 0.75 40 "Choose a square with about the same number of dots as the target" "Near" 2477 7.81480342948936
"5" "s01" 5 "Comparison Vague" "RtoL" "Large" "Vague" 0.5 "Comparison" -0.5 "06:15:24" -0.75 10 "Choose a square with far more dots than the target" "Expected" 1881 7.53955882930103
"6" "s01" 6 "Comparison Crisp" "RtoL" "Large" "Crisp" -0.5 "Comparison" -0.5 "16:25:34" -0.25 20 "Choose a square with more dots than the target" "Near" 2735 7.91388671485608
"7" "s01" 7 "Comparison Vague" "LtoR" "Large" "Vague" 0.5 "Comparison" -0.5 "26:35:44" 0.25 30 "Choose a square with far more dots than the target" "Expected" 1649 7.4079243225596
"8" "s01" 8 "Matching Vague" "RtoL" "Large" "Vague" 0.5 "Matching" 0.5 "36:45:54" 0.75 50 "Choose a square with about the same number of dots as the target" "Far" 2232 7.7106533235012
"9" "s01" 9 "Comparison Crisp" "LtoR" "Small" "Crisp" -0.5 "Comparison" -0.5 "06:15:24" -0.75 20 "Choose a square with fewer dots than the target" "Expected" 1994 7.59789795052178
"10" "s01" 10 "Comparison Vague" "RtoL" "Small" "Vague" 0.5 "Comparison" -0.5 "16:25:34" -0.25 30 "Choose a square with far fewer dots than the target" "Expected" 1163 7.05875815251866
"11" "s01" 11 "Matching Vague" "LtoR" "Small" "Vague" 0.5 "Matching" 0.5 "26:35:44" 0.25 30 "Choose a square with about the same number of dots as the target" "Expected" 1418 7.25700270709207
"12" "s01" 12 "Matching Crisp" "LtoR" "Large" "Crisp" -0.5 "Matching" 0.5 "36:45:54" 0.75 54 "Choose a square with the same number of dots as the target" "Near" 1248 7.12929754892937
"13" "s01" 13 "Matching Crisp" "LtoR" "Large" "Crisp" -0.5 "Matching" 0.5 "06:15:24" -0.75 24 "Choose a square with the same number of dots as the target" "Expected" 1315 7.18159194461187
"14" "s01" 14 "Comparison Vague" "LtoR" "Small" "Vague" 0.5 "Comparison" -0.5 "16:25:34" -0.25 30 "Choose a square with far fewer dots than the target" "Expected" 1725 7.45298232946546
"15" "s01" 15 "Matching Crisp" "RtoL" "Small" "Crisp" -0.5 "Matching" 0.5 "26:35:44" 0.25 26 "Choose a square with the same number of dots as the target" "Expected" 1429 7.26473017792987
"16" "s01" 16 "Comparison Vague" "RtoL" "Small" "Vague" 0.5 "Comparison" -0.5 "36:45:54" 0.75 50 "Choose a square with far fewer dots than the target" "Expected" 2813 7.94200680848986
"17" "s01" 17 "Matching Vague" "RtoL" "Large" "Vague" 0.5 "Matching" 0.5 "06:15:24" -0.75 20 "Choose a square with about the same number of dots as the target" "Near" 1305 7.17395831975679
"18" "s01" 18 "Comparison Vague" "LtoR" "Large" "Vague" 0.5 "Comparison" -0.5 "16:25:34" -0.25 20 "Choose a square with far more dots than the target" "Expected" 1957 7.57916796739608
"19" "s01" 19 "Comparison Vague" "RtoL" "Small" "Vague" 0.5 "Comparison" -0.5 "26:35:44" 0.25 40 "Choose a square with far fewer dots than the target" "Far" 3153 8.05610965954506
"20" "s01" 20 "Matching Vague" "LtoR" "Large" "Vague" 0.5 "Matching" 0.5 "36:45:54" 0.75 50 "Choose a square with about the same number of dots as the target" "Near" 1865 7.53101633207792
"21" "s01" 21 "Comparison Vague" "LtoR" "Small" "Vague" 0.5 "Comparison" -0.5 "06:15:24" -0.75 20 "Choose a square with far fewer dots than the target" "Expected" 1162 7.05789793741186
"22" "s01" 22 "Matching Vague" "RtoL" "Small" "Vague" 0.5 "Matching" 0.5 "16:25:34" -0.25 20 "Choose a square with about the same number of dots as the target" "Near" 1620 7.39018142822643
"23" "s01" 23 "Matching Vague" "LtoR" "Large" "Vague" 0.5 "Matching" 0.5 "26:35:44" 0.25 40 "Choose a square with about the same number of dots as the target" "Far" 2309 7.7445698093545
"24" "s01" 24 "Matching Crisp" "RtoL" "Small" "Crisp" -0.5 "Matching" 0.5 "36:45:54" 0.75 36 "Choose a square with the same number of dots as the target" "Expected" 2181 7.68753876620163
"25" "s01" 25 "Matching Vague" "LtoR" "Small" "Vague" 0.5 "Matching" 0.5 "06:15:24" -0.75 10 "Choose a square with about the same number of dots as the target" "Expected" 1830 7.51207124583547
"26" "s01" 26 "Comparison Vague" "RtoL" "Large" "Vague" 0.5 "Comparison" -0.5 "16:25:34" -0.25 20 "Choose a square with far more dots than the target" "Far" 1287 7.16006920759613
"27" "s01" 27 "Comparison Vague" "LtoR" "Small" "Vague" 0.5 "Comparison" -0.5 "26:35:44" 0.25 40 "Choose a square with far fewer dots than the target" "Expected" 1081 6.98564181763921
"28" "s01" 28 "Comparison Crisp" "RtoL" "Small" "Crisp" -0.5 "Comparison" -0.5 "36:45:54" 0.75 50 "Choose a square with fewer dots than the target" "Expected" 2263 7.72444664563354
"29" "s01" 29 "Comparison Crisp" "LtoR" "Large" "Crisp" -0.5 "Comparison" -0.5 "06:15:24" -0.75 10 "Choose a square with more dots than the target" "Expected" 1501 7.31388683163346
"30" "s01" 30 "Matching Crisp" "RtoL" "Large" "Crisp" -0.5 "Matching" 0.5 "16:25:34" -0.25 34 "Choose a square with the same number of dots as the target" "Expected" 2181 7.68753876620163
"31" "s01" 31 "Comparison Crisp" "RtoL" "Small" "Crisp" -0.5 "Comparison" -0.5 "26:35:44" 0.25 40 "Choose a square with fewer dots than the target" "Expected" 1626 7.39387829010776
"32" "s01" 32 "Comparison Vague" "RtoL" "Large" "Vague" 0.5 "Comparison" -0.5 "36:45:54" 0.75 40 "Choose a square with far more dots than the target" "Expected" 2283 7.7332456465298
"33" "s01" 33 "Matching Crisp" "LtoR" "Small" "Crisp" -0.5 "Matching" 0.5 "06:15:24" -0.75 6 "Choose a square with the same number of dots as the target" "Expected" 2320 7.74932246466036
"34" "s01" 34 "Matching Vague" "LtoR" "Large" "Vague" 0.5 "Matching" 0.5 "16:25:34" -0.25 30 "Choose a square with about the same number of dots as the target" "Near" 1831 7.51261754467451
"35" "s01" 35 "Matching Vague" "RtoL" "Large" "Vague" 0.5 "Matching" 0.5 "26:35:44" 0.25 40 "Choose a square with about the same number of dots as the target" "Near" 1708 7.44307837434852
"36" "s01" 36 "Matching Crisp" "RtoL" "Large" "Crisp" -0.5 "Matching" 0.5 "36:45:54" 0.75 54 "Choose a square with the same number of dots as the target" "Near" 1603 7.37963215260955
"37" "s01" 37 "Comparison Vague" "RtoL" "Small" "Vague" 0.5 "Comparison" -0.5 "06:15:24" -0.75 20 "Choose a square with far fewer dots than the target" "Near" 1469 7.29233717617388
"38" "s01" 38 "Matching Vague" "RtoL" "Large" "Vague" 0.5 "Matching" 0.5 "16:25:34" -0.25 30 "Choose a square with about the same number of dots as the target" "Far" 2359 7.76599307940768
"39" "s01" 39 "Comparison Crisp" "LtoR" "Small" "Crisp" -0.5 "Comparison" -0.5 "26:35:44" 0.25 40 "Choose a square with fewer dots than the target" "Expected" 1986 7.59387784460512
"40" "s01" 40 "Comparison Vague" "LtoR" "Large" "Vague" 0.5 "Comparison" -0.5 "36:45:54" 0.75 40 "Choose a square with far more dots than the target" "Near" 1805 7.49831587076698
"41" "s01" 41 "Comparison Crisp" "RtoL" "Large" "Crisp" -0.5 "Comparison" -0.5 "06:15:24" -0.75 10 "Choose a square with more dots than the target" "Near" 3090 8.03592636989179
"42" "s01" 42 "Matching Crisp" "RtoL" "Small" "Crisp" -0.5 "Matching" 0.5 "16:25:34" -0.25 16 "Choose a square with the same number of dots as the target" "Expected" 1376 7.22693601849329
"43" "s01" 43 "Matching Crisp" "LtoR" "Small" "Crisp" -0.5 "Matching" 0.5 "26:35:44" 0.25 26 "Choose a square with the same number of dots as the target" "Expected" 1420 7.25841215059531
"44" "s01" 44 "Comparison Crisp" "LtoR" "Large" "Crisp" -0.5 "Comparison" -0.5 "36:45:54" 0.75 40 "Choose a square with more dots than the target" "Near" 2581 7.85593219971861
"45" "s01" 45 "Matching Vague" "LtoR" "Large" "Vague" 0.5 "Matching" 0.5 "06:15:24" -0.75 20 "Choose a square with about the same number of dots as the target" "Near" 2100 7.64969262371151
"46" "s01" 46 "Comparison Crisp" "LtoR" "Small" "Crisp" -0.5 "Comparison" -0.5 "16:25:34" -0.25 30 "Choose a square with fewer dots than the target" "Expected" 1912 7.55590509361135
"47" "s01" 47 "Comparison Crisp" "RtoL" "Large" "Crisp" -0.5 "Comparison" -0.5 "26:35:44" 0.25 30 "Choose a square with more dots than the target" "Expected" 2043 7.62217459481762
"48" "s01" 48 "Comparison Vague" "LtoR" "Small" "Vague" 0.5 "Comparison" -0.5 "36:45:54" 0.75 50 "Choose a square with far fewer dots than the target" "Expected" 1724 7.45240245122364
"49" "s01" 49 "Matching Vague" "RtoL" "Small" "Vague" 0.5 "Matching" 0.5 "06:15:24" -0.75 10 "Choose a square with about the same number of dots as the target" "Near" 2020 7.61085279039525
"50" "s01" 50 "Comparison Crisp" "LtoR" "Large" "Crisp" -0.5 "Comparison" -0.5 "16:25:34" -0.25 20 "Choose a square with more dots than the target" "Expected" 2058 7.62948991639399
"51" "s01" 51 "Matching Crisp" "LtoR" "Large" "Crisp" -0.5 "Matching" 0.5 "26:35:44" 0.25 44 "Choose a square with the same number of dots as the target" "Near" 2078 7.63916117165917
"52" "s01" 52 "Comparison Crisp" "LtoR" "Small" "Crisp" -0.5 "Comparison" -0.5 "36:45:54" 0.75 50 "Choose a square with fewer dots than the target" "Expected" 1881 7.53955882930103
"53" "s01" 53 "Comparison Vague" "LtoR" "Large" "Vague" 0.5 "Comparison" -0.5 "06:15:24" -0.75 10 "Choose a square with far more dots than the target" "Expected" 1217 7.10414409298753
"54" "s01" 54 "Matching Vague" "LtoR" "Small" "Vague" 0.5 "Matching" 0.5 "16:25:34" -0.25 20 "Choose a square with about the same number of dots as the target" "Expected" 1369 7.22183582528845
"55" "s01" 55 "Matching Vague" "RtoL" "Small" "Vague" 0.5 "Matching" 0.5 "26:35:44" 0.25 30 "Choose a square with about the same number of dots as the target" "Expected" 1752 7.46851327149634
"56" "s01" 56 "Matching Crisp" "LtoR" "Small" "Crisp" -0.5 "Matching" 0.5 "36:45:54" 0.75 36 "Choose a square with the same number of dots as the target" "Expected" 1736 7.4593388952203
"57" "s01" 57 "Comparison Crisp" "RtoL" "Small" "Crisp" -0.5 "Comparison" -0.5 "06:15:24" -0.75 20 "Choose a square with fewer dots than the target" "Expected" 1182 7.07496319796604
"58" "s01" 58 "Matching Crisp" "LtoR" "Small" "Crisp" -0.5 "Matching" 0.5 "16:25:34" -0.25 16 "Choose a square with the same number of dots as the target" "Expected" 1665 7.41758040241454
"59" "s01" 59 "Comparison Vague" "RtoL" "Large" "Vague" 0.5 "Comparison" -0.5 "26:35:44" 0.25 30 "Choose a square with far more dots than the target" "Far" 1156 7.05272104923232
"60" "s01" 60 "Matching Vague" "RtoL" "Small" "Vague" 0.5 "Matching" 0.5 "36:45:54" 0.75 40 "Choose a square with about the same number of dots as the target" "Near" 1315 7.18159194461187
"61" "s01" 61 "Matching Crisp" "RtoL" "Small" "Crisp" -0.5 "Matching" 0.5 "06:15:24" -0.75 6 "Choose a square with the same number of dots as the target" "Near" 2020 7.61085279039525
"62" "s01" 62 "Matching Crisp" "LtoR" "Large" "Crisp" -0.5 "Matching" 0.5 "16:25:34" -0.25 34 "Choose a square with the same number of dots as the target" "Near" 1497 7.31121838441963
"63" "s01" 63 "Matching Crisp" "RtoL" "Large" "Crisp" -0.5 "Matching" 0.5 "26:35:44" 0.25 44 "Choose a square with the same number of dots as the target" "Expected" 1946 7.57353126274595
"64" "s01" 64 "Comparison Crisp" "RtoL" "Large" "Crisp" -0.5 "Comparison" -0.5 "36:45:54" 0.75 40 "Choose a square with more dots than the target" "Expected" 2271 7.72797554210556
"65" "s01" 65 "Comparison Crisp" "RtoL" "Small" "Crisp" -0.5 "Comparison" -0.5 "06:15:24" -0.75 20 "Choose a square with fewer dots than the target" "Expected" 1184 7.07665381544395
"66" "s01" 66 "Comparison Crisp" "LtoR" "Large" "Crisp" -0.5 "Comparison" -0.5 "16:25:34" -0.25 20 "Choose a square with more dots than the target" "Expected" 960 6.86693328446188
"67" "s01" 67 "Matching Crisp" "LtoR" "Small" "Crisp" -0.5 "Matching" 0.5 "26:35:44" 0.25 26 "Choose a square with the same number of dots as the target" "Near" 1476 7.29709100516042
"68" "s01" 68 "Comparison Crisp" "LtoR" "Small" "Crisp" -0.5 "Comparison" -0.5 "36:45:54" 0.75 50 "Choose a square with fewer dots than the target" "Expected" 1476 7.29709100516042
"69" "s01" 69 "Comparison Crisp" "LtoR" "Small" "Crisp" -0.5 "Comparison" -0.5 "06:15:24" -0.75 20 "Choose a square with fewer dots than the target" "Expected" 1879 7.53849499941346
"70" "s01" 70 "Matching Vague" "LtoR" "Large" "Vague" 0.5 "Matching" 0.5 "16:25:34" -0.25 30 "Choose a square with about the same number of dots as the target" "Far" 1806 7.49886973397693
"71" "s01" 71 "Comparison Vague" "LtoR" "Large" "Vague" 0.5 "Comparison" -0.5 "26:35:44" 0.25 30 "Choose a square with far more dots than the target" "Expected" 1583 7.36707705988101
"72" "s01" 72 "Matching Crisp" "RtoL" "Large" "Crisp" -0.5 "Matching" 0.5 "36:45:54" 0.75 54 "Choose a square with the same number of dots as the target" "Far" 2638 7.87777633327726
"73" "s01" 73 "Matching Crisp" "LtoR" "Large" "Crisp" -0.5 "Matching" 0.5 "06:15:24" -0.75 24 "Choose a square with the same number of dots as the target" "Near" 1797 7.49387388678356
"74" "s01" 74 "Matching Vague" "LtoR" "Small" "Vague" 0.5 "Matching" 0.5 "16:25:34" -0.25 20 "Choose a square with about the same number of dots as the target" "Expected" 2115 7.65681009148038
"75" "s01" 75 "Matching Crisp" "RtoL" "Large" "Crisp" -0.5 "Matching" 0.5 "26:35:44" 0.25 44 "Choose a square with the same number of dots as the target" "Near" 2460 7.80791662892641
"76" "s01" 76 "Matching Crisp" "LtoR" "Small" "Crisp" -0.5 "Matching" 0.5 "36:45:54" 0.75 36 "Choose a square with the same number of dots as the target" "Near" 2020 7.61085279039525
"77" "s01" 77 "Matching Vague" "RtoL" "Large" "Vague" 0.5 "Matching" 0.5 "06:15:24" -0.75 20 "Choose a square with about the same number of dots as the target" "Near" 888 6.78897174299217
"78" "s01" 78 "Comparison Vague" "RtoL" "Large" "Vague" 0.5 "Comparison" -0.5 "16:25:34" -0.25 20 "Choose a square with far more dots than the target" "Expected" 1597 7.37588214821501
"79" "s01" 79 "Matching Vague" "LtoR" "Large" "Vague" 0.5 "Matching" 0.5 "26:35:44" 0.25 40 "Choose a square with about the same number of dots as the target" "Near" 1793 7.49164547360513
"80" "s01" 80 "Matching Crisp" "LtoR" "Large" "Crisp" -0.5 "Matching" 0.5 "36:45:54" 0.75 54 "Choose a square with the same number of dots as the target" "Near" 1750 7.46737106691756
"81" "s01" 81 "Matching Vague" "LtoR" "Large" "Vague" 0.5 "Matching" 0.5 "06:15:24" -0.75 20 "Choose a square with about the same number of dots as the target" "Near" 1670 7.4205789054108
"82" "s01" 82 "Comparison Vague" "LtoR" "Large" "Vague" 0.5 "Comparison" -0.5 "16:25:34" -0.25 20 "Choose a square with far more dots than the target" "Expected" 1794 7.49220304261874
"83" "s01" 83 "Comparison Crisp" "LtoR" "Large" "Crisp" -0.5 "Comparison" -0.5 "26:35:44" 0.25 30 "Choose a square with more dots than the target" "Near" 1807 7.49942329059223
"84" "s01" 84 "Comparison Vague" "LtoR" "Small" "Vague" 0.5 "Comparison" -0.5 "36:45:54" 0.75 50 "Choose a square with far fewer dots than the target" "Expected" 2734 7.91352101728389
"85" "s01" 85 "Comparison Vague" "RtoL" "Small" "Vague" 0.5 "Comparison" -0.5 "06:15:24" -0.75 20 "Choose a square with far fewer dots than the target" "Expected" 1025 6.93244789157251
"86" "s01" 86 "Matching Crisp" "RtoL" "Small" "Crisp" -0.5 "Matching" 0.5 "16:25:34" -0.25 16 "Choose a square with the same number of dots as the target" "Expected" 1870 7.53369370984863
"87" "s01" 87 "Comparison Crisp" "LtoR" "Small" "Crisp" -0.5 "Comparison" -0.5 "26:35:44" 0.25 40 "Choose a square with fewer dots than the target" "Expected" 1810 7.50108212425987
"88" "s01" 88 "Matching Vague" "RtoL" "Small" "Vague" 0.5 "Matching" 0.5 "36:45:54" 0.75 40 "Choose a square with about the same number of dots as the target" "Expected" 1187 7.07918439460967
"89" "s01" 89 "Matching Crisp" "RtoL" "Small" "Crisp" -0.5 "Matching" 0.5 "06:15:24" -0.75 6 "Choose a square with the same number of dots as the target" "Expected" 1486 7.3038432252777
"90" "s01" 90 "Comparison Crisp" "LtoR" "Small" "Crisp" -0.5 "Comparison" -0.5 "16:25:34" -0.25 30 "Choose a square with fewer dots than the target" "Expected" 1990 7.59588991771854
"91" "s01" 91 "Matching Vague" "LtoR" "Small" "Vague" 0.5 "Matching" 0.5 "26:35:44" 0.25 30 "Choose a square with about the same number of dots as the target" "Expected" 1533 7.33498187887181
"92" "s01" 92 "Matching Vague" "LtoR" "Large" "Vague" 0.5 "Matching" 0.5 "36:45:54" 0.75 50 "Choose a square with about the same number of dots as the target" "Far" 1659 7.41397029019044
"93" "s01" 93 "Matching Vague" "RtoL" "Small" "Vague" 0.5 "Matching" 0.5 "06:15:24" -0.75 10 "Choose a square with about the same number of dots as the target" "Expected" 1959 7.58018941794454
"94" "s01" 94 "Matching Vague" "RtoL" "Small" "Vague" 0.5 "Matching" 0.5 "16:25:34" -0.25 20 "Choose a square with about the same number of dots as the target" "Expected" 1229 7.11395610956603
"95" "s01" 95 "Comparison Crisp" "RtoL" "Large" "Crisp" -0.5 "Comparison" -0.5 "26:35:44" 0.25 30 "Choose a square with more dots than the target" "Expected" 1818 7.50549227473742
"96" "s01" 96 "Matching Vague" "LtoR" "Small" "Vague" 0.5 "Matching" 0.5 "36:45:54" 0.75 40 "Choose a square with about the same number of dots as the target" "Expected" 1347 7.20563517641036
"97" "s01" 97 "Comparison Vague" "RtoL" "Large" "Vague" 0.5 "Comparison" -0.5 "06:15:24" -0.75 10 "Choose a square with far more dots than the target" "Expected" 1420 7.25841215059531
"98" "s01" 98 "Matching Vague" "RtoL" "Large" "Vague" 0.5 "Matching" 0.5 "16:25:34" -0.25 30 "Choose a square with about the same number of dots as the target" "Near" 1004 6.91174730025167
"99" "s01" 99 "Matching Crisp" "RtoL" "Small" "Crisp" -0.5 "Matching" 0.5 "26:35:44" 0.25 26 "Choose a square with the same number of dots as the target" "Expected" 1296 7.16703787691222
"100" "s01" 100 "Comparison Vague" "RtoL" "Large" "Vague" 0.5 "Comparison" -0.5 "36:45:54" 0.75 40 "Choose a square with far more dots than the target" "Near" 1282 7.15617663748062
"101" "s01" 101 "Comparison Crisp" "LtoR" "Large" "Crisp" -0.5 "Comparison" -0.5 "06:15:24" -0.75 10 "Choose a square with more dots than the target" "Expected" 1516 7.32383056620232
"102" "s01" 102 "Comparison Vague" "LtoR" "Small" "Vague" 0.5 "Comparison" -0.5 "16:25:34" -0.25 30 "Choose a square with far fewer dots than the target" "Expected" 1711 7.44483327389219
"103" "s01" 103 "Comparison Vague" "RtoL" "Large" "Vague" 0.5 "Comparison" -0.5 "26:35:44" 0.25 30 "Choose a square with far more dots than the target" "Expected" 1629 7.39572160860205
"104" "s01" 104 "Matching Vague" "RtoL" "Large" "Vague" 0.5 "Matching" 0.5 "36:45:54" 0.75 50 "Choose a square with about the same number of dots as the target" "Near" 1403 7.24636808010246
"105" "s01" 105 "Comparison Vague" "LtoR" "Large" "Vague" 0.5 "Comparison" -0.5 "06:15:24" -0.75 10 "Choose a square with far more dots than the target" "Expected" 1867 7.53208814354172
"106" "s01" 106 "Comparison Crisp" "RtoL" "Large" "Crisp" -0.5 "Comparison" -0.5 "16:25:34" -0.25 20 "Choose a square with more dots than the target" "Near" 1532 7.33432935030054
"107" "s01" 107 "Comparison Vague" "RtoL" "Small" "Vague" 0.5 "Comparison" -0.5 "26:35:44" 0.25 40 "Choose a square with far fewer dots than the target" "Expected" 1368 7.2211050981825
"108" "s01" 108 "Comparison Vague" "LtoR" "Large" "Vague" 0.5 "Comparison" -0.5 "36:45:54" 0.75 40 "Choose a square with far more dots than the target" "Expected" 1519 7.32580750259577
"109" "s01" 109 "Matching Crisp" "RtoL" "Large" "Crisp" -0.5 "Matching" 0.5 "06:15:24" -0.75 24 "Choose a square with the same number of dots as the target" "Near" 1407 7.24921505711439
"110" "s01" 110 "Matching Crisp" "LtoR" "Large" "Crisp" -0.5 "Matching" 0.5 "16:25:34" -0.25 34 "Choose a square with the same number of dots as the target" "Near" 1380 7.22983877815125
"111" "s01" 111 "Comparison Crisp" "RtoL" "Small" "Crisp" -0.5 "Comparison" -0.5 "26:35:44" 0.25 40 "Choose a square with fewer dots than the target" "Expected" 950 6.85646198459459
"112" "s01" 112 "Matching Crisp" "RtoL" "Small" "Crisp" -0.5 "Matching" 0.5 "36:45:54" 0.75 36 "Choose a square with the same number of dots as the target" "Expected" 1168 7.06304816338817
"113" "s01" 113 "Matching Crisp" "LtoR" "Small" "Crisp" -0.5 "Matching" 0.5 "06:15:24" -0.75 6 "Choose a square with the same number of dots as the target" "Expected" 1571 7.35946763825562
"114" "s01" 114 "Comparison Vague" "RtoL" "Small" "Vague" 0.5 "Comparison" -0.5 "16:25:34" -0.25 30 "Choose a square with far fewer dots than the target" "Near" 1432 7.26682734752059
"115" "s01" 115 "Matching Vague" "RtoL" "Small" "Vague" 0.5 "Matching" 0.5 "26:35:44" 0.25 30 "Choose a square with about the same number of dots as the target" "Near" 1481 7.3004728142678
"116" "s01" 116 "Comparison Crisp" "RtoL" "Small" "Crisp" -0.5 "Comparison" -0.5 "36:45:54" 0.75 50 "Choose a square with fewer dots than the target" "Expected" 1142 7.04053639021596
"117" "s01" 117 "Comparison Crisp" "RtoL" "Large" "Crisp" -0.5 "Comparison" -0.5 "06:15:24" -0.75 10 "Choose a square with more dots than the target" "Expected" 1467 7.29097477814298
"118" "s01" 118 "Matching Crisp" "LtoR" "Small" "Crisp" -0.5 "Matching" 0.5 "16:25:34" -0.25 16 "Choose a square with the same number of dots as the target" "Expected" 1684 7.42892719480227
"119" "s01" 119 "Matching Vague" "RtoL" "Large" "Vague" 0.5 "Matching" 0.5 "26:35:44" 0.25 40 "Choose a square with about the same number of dots as the target" "Near" 979 6.88653164253051
"120" "s01" 120 "Comparison Crisp" "RtoL" "Large" "Crisp" -0.5 "Comparison" -0.5 "36:45:54" 0.75 40 "Choose a square with more dots than the target" "Expected" 1616 7.38770923908104
"121" "s01" 121 "Comparison Vague" "LtoR" "Small" "Vague" 0.5 "Comparison" -0.5 "06:15:24" -0.75 20 "Choose a square with far fewer dots than the target" "Expected" 1523 7.32843735289516
"122" "s01" 122 "Matching Crisp" "RtoL" "Large" "Crisp" -0.5 "Matching" 0.5 "16:25:34" -0.25 34 "Choose a square with the same number of dots as the target" "Near" 1865 7.53101633207792
"123" "s01" 123 "Matching Crisp" "LtoR" "Large" "Crisp" -0.5 "Matching" 0.5 "26:35:44" 0.25 44 "Choose a square with the same number of dots as the target" "Near" 1015 6.92264389147589
"124" "s01" 124 "Comparison Crisp" "LtoR" "Large" "Crisp" -0.5 "Comparison" -0.5 "36:45:54" 0.75 40 "Choose a square with more dots than the target" "Expected" 1388 7.23561914106675
"125" "s01" 125 "Matching Vague" "LtoR" "Small" "Vague" 0.5 "Matching" 0.5 "06:15:24" -0.75 10 "Choose a square with about the same number of dots as the target" "Near" 1969 7.58528107863913
"126" "s01" 126 "Comparison Crisp" "RtoL" "Small" "Crisp" -0.5 "Comparison" -0.5 "16:25:34" -0.25 30 "Choose a square with fewer dots than the target" "Expected" 991 6.89871453432999
"127" "s01" 127 "Comparison Vague" "LtoR" "Small" "Vague" 0.5 "Comparison" -0.5 "26:35:44" 0.25 40 "Choose a square with far fewer dots than the target" "Expected" 1671 7.42117752859539
"128" "s01" 128 "Comparison Vague" "RtoL" "Small" "Vague" 0.5 "Comparison" -0.5 "36:45:54" 0.75 50 "Choose a square with far fewer dots than the target" "Expected" 873 6.7719355558396
"129" "s01" 129 "Matching Vague" "LtoR" "Small" "Vague" 0.5 "Matching" 0.5 "06:15:24" -0.75 10 "Choose a square with about the same number of dots as the target" "Near" 1630 7.39633529380081
"130" "s01" 130 "Matching Crisp" "RtoL" "Large" "Crisp" -0.5 "Matching" 0.5 "16:25:34" -0.25 34 "Choose a square with the same number of dots as the target" "Near" 1538 7.33823815006559
"131" "s01" 131 "Matching Vague" "LtoR" "Large" "Vague" 0.5 "Matching" 0.5 "26:35:44" 0.25 40 "Choose a square with about the same number of dots as the target" "Far" 1580 7.36518012602101
"132" "s01" 132 "Comparison Crisp" "RtoL" "Small" "Crisp" -0.5 "Comparison" -0.5 "36:45:54" 0.75 50 "Choose a square with fewer dots than the target" "Expected" 3155 8.05674377497531
"133" "s01" 133 "Comparison Vague" "RtoL" "Large" "Vague" 0.5 "Comparison" -0.5 "06:15:24" -0.75 10 "Choose a square with far more dots than the target" "Expected" 1260 7.13886699994552
"134" "s01" 134 "Comparison Vague" "LtoR" "Large" "Vague" 0.5 "Comparison" -0.5 "16:25:34" -0.25 20 "Choose a square with far more dots than the target" "Expected" 2092 7.64587582518481
"135" "s01" 135 "Comparison Vague" "LtoR" "Small" "Vague" 0.5 "Comparison" -0.5 "26:35:44" 0.25 40 "Choose a square with far fewer dots than the target" "Expected" 1633 7.39817409297047
"136" "s01" 136 "Matching Crisp" "LtoR" "Small" "Crisp" -0.5 "Matching" 0.5 "36:45:54" 0.75 36 "Choose a square with the same number of dots as the target" "Near" 2445 7.80180040190897
"137" "s01" 137 "Comparison Vague" "LtoR" "Small" "Vague" 0.5 "Comparison" -0.5 "06:15:24" -0.75 20 "Choose a square with far fewer dots than the target" "Expected" 1700 7.43838353004431
"138" "s01" 138 "Comparison Vague" "RtoL" "Large" "Vague" 0.5 "Comparison" -0.5 "16:25:34" -0.25 20 "Choose a square with far more dots than the target" "Expected" 1263 7.14124512235049
"139" "s01" 139 "Comparison Vague" "RtoL" "Small" "Vague" 0.5 "Comparison" -0.5 "26:35:44" 0.25 40 "Choose a square with far fewer dots than the target" "Expected" 1131 7.03085747611612
"140" "s01" 140 "Matching Crisp" "RtoL" "Small" "Crisp" -0.5 "Matching" 0.5 "36:45:54" 0.75 36 "Choose a square with the same number of dots as the target" "Expected" 1727 7.45414107814668
"141" "s01" 141 "Comparison Crisp" "LtoR" "Small" "Crisp" -0.5 "Comparison" -0.5 "06:15:24" -0.75 20 "Choose a square with fewer dots than the target" "Expected" 946 6.85224256905188
"142" "s01" 142 "Matching Vague" "LtoR" "Large" "Vague" 0.5 "Matching" 0.5 "16:25:34" -0.25 30 "Choose a square with about the same number of dots as the target" "Near" 1457 7.2841348061952
"143" "s01" 143 "Matching Vague" "RtoL" "Large" "Vague" 0.5 "Matching" 0.5 "26:35:44" 0.25 40 "Choose a square with about the same number of dots as the target" "Near" 1594 7.37400185935016
"144" "s01" 144 "Comparison Crisp" "RtoL" "Large" "Crisp" -0.5 "Comparison" -0.5 "36:45:54" 0.75 40 "Choose a square with more dots than the target" "Expected" 1385 7.23345541862144
"145" "s01" 145 "Matching Crisp" "LtoR" "Large" "Crisp" -0.5 "Matching" 0.5 "06:15:24" -0.75 24 "Choose a square with the same number of dots as the target" "Near" 1250 7.13089883029635
"146" "s01" 146 "Comparison Vague" "LtoR" "Small" "Vague" 0.5 "Comparison" -0.5 "16:25:34" -0.25 30 "Choose a square with far fewer dots than the target" "Expected" 1416 7.25559127425367
"147" "s01" 147 "Matching Crisp" "RtoL" "Large" "Crisp" -0.5 "Matching" 0.5 "26:35:44" 0.25 44 "Choose a square with the same number of dots as the target" "Far" 2901 7.9728107841214
"148" "s01" 148 "Comparison Crisp" "LtoR" "Large" "Crisp" -0.5 "Comparison" -0.5 "36:45:54" 0.75 40 "Choose a square with more dots than the target" "Near" 1587 7.36960072052641
"149" "s01" 149 "Matching Vague" "LtoR" "Large" "Vague" 0.5 "Matching" 0.5 "06:15:24" -0.75 20 "Choose a square with about the same number of dots as the target" "Near" 1767 7.4770384723197
"150" "s01" 150 "Matching Crisp" "LtoR" "Large" "Crisp" -0.5 "Matching" 0.5 "16:25:34" -0.25 34 "Choose a square with the same number of dots as the target" "Expected" 1419 7.25770767716004
"151" "s01" 151 "Comparison Crisp" "RtoL" "Small" "Crisp" -0.5 "Comparison" -0.5 "26:35:44" 0.25 40 "Choose a square with fewer dots than the target" "Expected" 1121 7.02197642307216
"152" "s01" 152 "Comparison Vague" "LtoR" "Small" "Vague" 0.5 "Comparison" -0.5 "36:45:54" 0.75 50 "Choose a square with far fewer dots than the target" "Expected" 2058 7.62948991639399
"153" "s01" 153 "Comparison Crisp" "RtoL" "Small" "Crisp" -0.5 "Comparison" -0.5 "06:15:24" -0.75 20 "Choose a square with fewer dots than the target" "Expected" 918 6.82219739062049
"154" "s01" 154 "Matching Vague" "RtoL" "Large" "Vague" 0.5 "Matching" 0.5 "16:25:34" -0.25 30 "Choose a square with about the same number of dots as the target" "Far" 1058 6.96413561241824
"155" "s01" 155 "Matching Vague" "LtoR" "Small" "Vague" 0.5 "Matching" 0.5 "26:35:44" 0.25 30 "Choose a square with about the same number of dots as the target" "Expected" 1283 7.15695636461564
"156" "s01" 156 "Matching Vague" "LtoR" "Small" "Vague" 0.5 "Matching" 0.5 "36:45:54" 0.75 40 "Choose a square with about the same number of dots as the target" "Expected" 1070 6.97541392745595
"157" "s01" 157 "Comparison Vague" "LtoR" "Large" "Vague" 0.5 "Comparison" -0.5 "06:15:24" -0.75 10 "Choose a square with far more dots than the target" "Expected" 1346 7.20489251020467
"158" "s01" 158 "Comparison Crisp" "RtoL" "Large" "Crisp" -0.5 "Comparison" -0.5 "16:25:34" -0.25 20 "Choose a square with more dots than the target" "Expected" 1283 7.15695636461564
"159" "s01" 159 "Comparison Crisp" "LtoR" "Large" "Crisp" -0.5 "Comparison" -0.5 "26:35:44" 0.25 30 "Choose a square with more dots than the target" "Expected" 1180 7.07326971745971
"160" "s01" 160 "Matching Crisp" "RtoL" "Large" "Crisp" -0.5 "Matching" 0.5 "36:45:54" 0.75 54 "Choose a square with the same number of dots as the target" "Expected" 1051 6.95749737087695
"161" "s01" 161 "Matching Vague" "RtoL" "Large" "Vague" 0.5 "Matching" 0.5 "06:15:24" -0.75 20 "Choose a square with about the same number of dots as the target" "Near" 975 6.88243747099785
"162" "s01" 162 "Comparison Vague" "RtoL" "Small" "Vague" 0.5 "Comparison" -0.5 "16:25:34" -0.25 30 "Choose a square with far fewer dots than the target" "Far" 1724 7.45240245122364
"163" "s01" 163 "Matching Vague" "RtoL" "Small" "Vague" 0.5 "Matching" 0.5 "26:35:44" 0.25 30 "Choose a square with about the same number of dots as the target" "Expected" 950 6.85646198459459
"164" "s01" 164 "Matching Vague" "RtoL" "Small" "Vague" 0.5 "Matching" 0.5 "36:45:54" 0.75 40 "Choose a square with about the same number of dots as the target" "Expected" 917 6.82110747225646
"165" "s01" 165 "Matching Crisp" "RtoL" "Small" "Crisp" -0.5 "Matching" 0.5 "06:15:24" -0.75 6 "Choose a square with the same number of dots as the target" "Expected" 1019 6.92657703322272
"166" "s01" 166 "Comparison Crisp" "RtoL" "Small" "Crisp" -0.5 "Comparison" -0.5 "16:25:34" -0.25 30 "Choose a square with fewer dots than the target" "Expected" 1235 7.11882624906208
"167" "s01" 167 "Comparison Crisp" "LtoR" "Small" "Crisp" -0.5 "Comparison" -0.5 "26:35:44" 0.25 40 "Choose a square with fewer dots than the target" "Expected" 1017 6.92461239604856
"168" "s01" 168 "Matching Vague" "LtoR" "Large" "Vague" 0.5 "Matching" 0.5 "36:45:54" 0.75 50 "Choose a square with about the same number of dots as the target" "Far" 1096 6.99942246750796
"169" "s01" 169 "Comparison Crisp" "RtoL" "Large" "Crisp" -0.5 "Comparison" -0.5 "06:15:24" -0.75 10 "Choose a square with more dots than the target" "Expected" 1392 7.23849684089437
"170" "s01" 170 "Matching Crisp" "LtoR" "Small" "Crisp" -0.5 "Matching" 0.5 "16:25:34" -0.25 16 "Choose a square with the same number of dots as the target" "Expected" 988 6.89568269774787
"171" "s01" 171 "Matching Crisp" "LtoR" "Small" "Crisp" -0.5 "Matching" 0.5 "26:35:44" 0.25 26 "Choose a square with the same number of dots as the target" "Expected" 1006 6.91373735065968
"172" "s01" 172 "Comparison Vague" "LtoR" "Large" "Vague" 0.5 "Comparison" -0.5 "36:45:54" 0.75 40 "Choose a square with far more dots than the target" "Expected" 881 6.78105762593618
"173" "s01" 173 "Comparison Crisp" "LtoR" "Large" "Crisp" -0.5 "Comparison" -0.5 "06:15:24" -0.75 10 "Choose a square with more dots than the target" "Expected" 1036 6.94312242281943
"174" "s01" 174 "Matching Vague" "RtoL" "Small" "Vague" 0.5 "Matching" 0.5 "16:25:34" -0.25 20 "Choose a square with about the same number of dots as the target" "Near" 1360 7.2152399787301
"175" "s01" 175 "Matching Crisp" "RtoL" "Small" "Crisp" -0.5 "Matching" 0.5 "26:35:44" 0.25 26 "Choose a square with the same number of dots as the target" "Expected" 1467 7.29097477814298
"176" "s01" 176 "Comparison Vague" "RtoL" "Small" "Vague" 0.5 "Comparison" -0.5 "36:45:54" 0.75 50 "Choose a square with far fewer dots than the target" "Expected" 1121 7.02197642307216
"177" "s01" 177 "Comparison Vague" "RtoL" "Small" "Vague" 0.5 "Comparison" -0.5 "06:15:24" -0.75 20 "Choose a square with far fewer dots than the target" "Expected" 950 6.85646198459459
"178" "s01" 178 "Matching Vague" "LtoR" "Small" "Vague" 0.5 "Matching" 0.5 "16:25:34" -0.25 20 "Choose a square with about the same number of dots as the target" "Expected" 1038 6.94505106372583
"179" "s01" 179 "Comparison Vague" "RtoL" "Large" "Vague" 0.5 "Comparison" -0.5 "26:35:44" 0.25 30 "Choose a square with far more dots than the target" "Near" 1644 7.40488757561612
"180" "s01" 180 "Matching Vague" "RtoL" "Large" "Vague" 0.5 "Matching" 0.5 "36:45:54" 0.75 50 "Choose a square with about the same number of dots as the target" "Near" 1750 7.46737106691756
"181" "s01" 181 "Matching Crisp" "RtoL" "Large" "Crisp" -0.5 "Matching" 0.5 "06:15:24" -0.75 24 "Choose a square with the same number of dots as the target" "Near" 1290 7.16239749735572
"182" "s01" 182 "Comparison Crisp" "LtoR" "Small" "Crisp" -0.5 "Comparison" -0.5 "16:25:34" -0.25 30 "Choose a square with fewer dots than the target" "Expected" 976 6.88346258641309
"183" "s01" 183 "Comparison Vague" "LtoR" "Large" "Vague" 0.5 "Comparison" -0.5 "26:35:44" 0.25 30 "Choose a square with far more dots than the target" "Near" 1305 7.17395831975679
"184" "s01" 184 "Matching Crisp" "LtoR" "Large" "Crisp" -0.5 "Matching" 0.5 "36:45:54" 0.75 54 "Choose a square with the same number of dots as the target" "Far" 1500 7.3132203870903
"185" "s01" 185 "Matching Vague" "RtoL" "Small" "Vague" 0.5 "Matching" 0.5 "06:15:24" -0.75 10 "Choose a square with about the same number of dots as the target" "Near" 1480 7.29979736675816
"186" "s01" 186 "Matching Crisp" "RtoL" "Small" "Crisp" -0.5 "Matching" 0.5 "16:25:34" -0.25 16 "Choose a square with the same number of dots as the target" "Expected" 1028 6.93537044601511
"187" "s01" 187 "Matching Crisp" "LtoR" "Large" "Crisp" -0.5 "Matching" 0.5 "26:35:44" 0.25 44 "Choose a square with the same number of dots as the target" "Expected" 999 6.90675477864855
"188" "s01" 188 "Comparison Crisp" "LtoR" "Small" "Crisp" -0.5 "Comparison" -0.5 "36:45:54" 0.75 50 "Choose a square with fewer dots than the target" "Expected" 1628 7.39510754656249
"189" "s01" 189 "Matching Crisp" "LtoR" "Small" "Crisp" -0.5 "Matching" 0.5 "06:15:24" -0.75 6 "Choose a square with the same number of dots as the target" "Expected" 1906 7.55276208421415
"190" "s01" 190 "Comparison Crisp" "LtoR" "Large" "Crisp" -0.5 "Comparison" -0.5 "16:25:34" -0.25 20 "Choose a square with more dots than the target" "Expected" 991 6.89871453432999
"191" "s01" 191 "Comparison Crisp" "RtoL" "Large" "Crisp" -0.5 "Comparison" -0.5 "26:35:44" 0.25 30 "Choose a square with more dots than the target" "Expected" 962 6.86901445066571
"192" "s01" 192 "Comparison Vague" "RtoL" "Large" "Vague" 0.5 "Comparison" -0.5 "36:45:54" 0.75 40 "Choose a square with far more dots than the target" "Expected" 1681 7.42714413340862
"193" "s02" 1 "Comparison Vague" "RtoL" "Small" "Vague" 0.5 "Comparison" -0.5 "06:15:24" -0.75 20 "Choose a square with far fewer dots than the target" "Expected" 1107 7.00940893270864
"194" "s02" 2 "Comparison Crisp" "RtoL" "Small" "Crisp" -0.5 "Comparison" -0.5 "16:25:34" -0.25 30 "Choose a square with fewer dots than the target" "Near" 3987 8.29079434738136
"195" "s02" 3 "Matching Crisp" "RtoL" "Large" "Crisp" -0.5 "Matching" 0.5 "26:35:44" 0.25 44 "Choose a square with the same number of dots as the target" "Expected" 2071 7.63578686139558
"196" "s02" 4 "Matching Crisp" "RtoL" "Large" "Crisp" -0.5 "Matching" 0.5 "36:45:54" 0.75 54 "Choose a square with the same number of dots as the target" "Expected" 1888 7.54327334670545
"197" "s02" 5 "Matching Crisp" "RtoL" "Large" "Crisp" -0.5 "Matching" 0.5 "06:15:24" -0.75 24 "Choose a square with the same number of dots as the target" "Near" 2021 7.61134771740362
"198" "s02" 6 "Comparison Vague" "RtoL" "Large" "Vague" 0.5 "Comparison" -0.5 "16:25:34" -0.25 20 "Choose a square with far more dots than the target" "Expected" 2168 7.68156036255954
"199" "s02" 7 "Matching Vague" "RtoL" "Small" "Vague" 0.5 "Matching" 0.5 "26:35:44" 0.25 30 "Choose a square with about the same number of dots as the target" "Near" 2278 7.73105314400713
"200" "s02" 8 "Comparison Vague" "RtoL" "Large" "Vague" 0.5 "Comparison" -0.5 "36:45:54" 0.75 40 "Choose a square with far more dots than the target" "Expected" 1772 7.47986413116503
"201" "s02" 9 "Comparison Crisp" "LtoR" "Large" "Crisp" -0.5 "Comparison" -0.5 "06:15:24" -0.75 10 "Choose a square with more dots than the target" "Expected" 882 6.78219205600679
"202" "s02" 10 "Matching Crisp" "LtoR" "Large" "Crisp" -0.5 "Matching" 0.5 "16:25:34" -0.25 34 "Choose a square with the same number of dots as the target" "Near" 3913 8.27205962221041
"203" "s02" 11 "Comparison Vague" "RtoL" "Large" "Vague" 0.5 "Comparison" -0.5 "26:35:44" 0.25 30 "Choose a square with far more dots than the target" "Expected" 2205 7.69848278788095
"204" "s02" 12 "Comparison Vague" "LtoR" "Large" "Vague" 0.5 "Comparison" -0.5 "36:45:54" 0.75 40 "Choose a square with far more dots than the target" "Expected" 932 6.83733281468559
"205" "s02" 13 "Comparison Crisp" "LtoR" "Small" "Crisp" -0.5 "Comparison" -0.5 "06:15:24" -0.75 20 "Choose a square with fewer dots than the target" "Far" 1691 7.43307534889858
"206" "s02" 14 "Comparison Vague" "LtoR" "Large" "Vague" 0.5 "Comparison" -0.5 "16:25:34" -0.25 20 "Choose a square with far more dots than the target" "Expected" 1055 6.96129604591017
"207" "s02" 15 "Comparison Vague" "RtoL" "Small" "Vague" 0.5 "Comparison" -0.5 "26:35:44" 0.25 40 "Choose a square with far fewer dots than the target" "Expected" 2610 7.86710550031674
"208" "s02" 16 "Comparison Crisp" "RtoL" "Small" "Crisp" -0.5 "Comparison" -0.5 "36:45:54" 0.75 50 "Choose a square with fewer dots than the target" "Near" 1799 7.49498623395053
"209" "s02" 17 "Comparison Vague" "RtoL" "Large" "Vague" 0.5 "Comparison" -0.5 "06:15:24" -0.75 10 "Choose a square with far more dots than the target" "Expected" 1873 7.53529670244409
"210" "s02" 18 "Matching Crisp" "RtoL" "Small" "Crisp" -0.5 "Matching" 0.5 "16:25:34" -0.25 16 "Choose a square with the same number of dots as the target" "Expected" 2488 7.81923445385907
"211" "s02" 19 "Matching Crisp" "LtoR" "Large" "Crisp" -0.5 "Matching" 0.5 "26:35:44" 0.25 44 "Choose a square with the same number of dots as the target" "Near" 3367 8.12177741916107
"212" "s02" 20 "Comparison Vague" "RtoL" "Small" "Vague" 0.5 "Comparison" -0.5 "36:45:54" 0.75 50 "Choose a square with far fewer dots than the target" "Expected" 5418 8.59748202264504
"213" "s02" 21 "Comparison Vague" "LtoR" "Small" "Vague" 0.5 "Comparison" -0.5 "06:15:24" -0.75 20 "Choose a square with far fewer dots than the target" "Expected" 902 6.80461452006262
"214" "s02" 22 "Comparison Crisp" "LtoR" "Large" "Crisp" -0.5 "Comparison" -0.5 "16:25:34" -0.25 20 "Choose a square with more dots than the target" "Expected" 1594 7.37400185935016
"215" "s02" 23 "Comparison Vague" "LtoR" "Large" "Vague" 0.5 "Comparison" -0.5 "26:35:44" 0.25 30 "Choose a square with far more dots than the target" "Expected" 943 6.84906628263346
"216" "s02" 24 "Matching Crisp" "RtoL" "Small" "Crisp" -0.5 "Matching" 0.5 "36:45:54" 0.75 36 "Choose a square with the same number of dots as the target" "Expected" 1398 7.24279792279376
"217" "s02" 25 "Matching Crisp" "RtoL" "Small" "Crisp" -0.5 "Matching" 0.5 "06:15:24" -0.75 6 "Choose a square with the same number of dots as the target" "Expected" 2082 7.64108424917491
"218" "s02" 26 "Matching Vague" "RtoL" "Large" "Vague" 0.5 "Matching" 0.5 "16:25:34" -0.25 30 "Choose a square with about the same number of dots as the target" "Near" 3337 8.11282747875137
"219" "s02" 27 "Matching Crisp" "RtoL" "Small" "Crisp" -0.5 "Matching" 0.5 "26:35:44" 0.25 26 "Choose a square with the same number of dots as the target" "Near" 1698 7.43720636687129
"220" "s02" 28 "Comparison Crisp" "LtoR" "Large" "Crisp" -0.5 "Comparison" -0.5 "36:45:54" 0.75 40 "Choose a square with more dots than the target" "Expected" 1132 7.03174125876313
"221" "s02" 29 "Matching Vague" "LtoR" "Small" "Vague" 0.5 "Matching" 0.5 "06:15:24" -0.75 10 "Choose a square with about the same number of dots as the target" "Near" 2004 7.60290046220476
"222" "s02" 30 "Comparison Crisp" "RtoL" "Large" "Crisp" -0.5 "Comparison" -0.5 "16:25:34" -0.25 20 "Choose a square with more dots than the target" "Expected" 1992 7.59689443814454
"223" "s02" 31 "Matching Crisp" "LtoR" "Small" "Crisp" -0.5 "Matching" 0.5 "26:35:44" 0.25 26 "Choose a square with the same number of dots as the target" "Expected" 3818 8.24748200428569
"224" "s02" 32 "Matching Crisp" "LtoR" "Large" "Crisp" -0.5 "Matching" 0.5 "36:45:54" 0.75 54 "Choose a square with the same number of dots as the target" "Expected" 5908 8.68406264365127
"225" "s02" 33 "Matching Crisp" "LtoR" "Large" "Crisp" -0.5 "Matching" 0.5 "06:15:24" -0.75 24 "Choose a square with the same number of dots as the target" "Near" 1379 7.2291138777933
"226" "s02" 34 "Comparison Crisp" "LtoR" "Small" "Crisp" -0.5 "Comparison" -0.5 "16:25:34" -0.25 30 "Choose a square with fewer dots than the target" "Expected" 4590 8.43163530305459
"227" "s02" 35 "Comparison Crisp" "LtoR" "Large" "Crisp" -0.5 "Comparison" -0.5 "26:35:44" 0.25 30 "Choose a square with more dots than the target" "Expected" 5354 8.5855992240803
"228" "s02" 36 "Matching Vague" "RtoL" "Small" "Vague" 0.5 "Matching" 0.5 "36:45:54" 0.75 40 "Choose a square with about the same number of dots as the target" "Expected" 2065 7.63288550539513
"229" "s02" 37 "Matching Crisp" "LtoR" "Small" "Crisp" -0.5 "Matching" 0.5 "06:15:24" -0.75 6 "Choose a square with the same number of dots as the target" "Expected" 2468 7.81116338502528
"230" "s02" 38 "Comparison Vague" "RtoL" "Small" "Vague" 0.5 "Comparison" -0.5 "16:25:34" -0.25 30 "Choose a square with far fewer dots than the target" "Expected" 2216 7.70345904786717
"231" "s02" 39 "Comparison Vague" "LtoR" "Small" "Vague" 0.5 "Comparison" -0.5 "26:35:44" 0.25 40 "Choose a square with far fewer dots than the target" "Expected" 2209 7.70029520342012
"232" "s02" 40 "Comparison Vague" "LtoR" "Small" "Vague" 0.5 "Comparison" -0.5 "36:45:54" 0.75 50 "Choose a square with far fewer dots than the target" "Expected" 1284 7.15773548424991
"233" "s02" 41 "Matching Vague" "RtoL" "Large" "Vague" 0.5 "Matching" 0.5 "06:15:24" -0.75 20 "Choose a square with about the same number of dots as the target" "Expected" 1524 7.32909373624659
"234" "s02" 42 "Matching Vague" "RtoL" "Small" "Vague" 0.5 "Matching" 0.5 "16:25:34" -0.25 20 "Choose a square with about the same number of dots as the target" "Expected" 2164 7.67971363996637
"235" "s02" 43 "Comparison Crisp" "LtoR" "Small" "Crisp" -0.5 "Comparison" -0.5 "26:35:44" 0.25 40 "Choose a square with fewer dots than the target" "Expected" 1098 7.00124562206948
"236" "s02" 44 "Matching Vague" "LtoR" "Small" "Vague" 0.5 "Matching" 0.5 "36:45:54" 0.75 40 "Choose a square with about the same number of dots as the target" "Near" 4842 8.485083137498
"237" "s02" 45 "Comparison Crisp" "RtoL" "Large" "Crisp" -0.5 "Comparison" -0.5 "06:15:24" -0.75 10 "Choose a square with more dots than the target" "Expected" 1183 7.07580886397839
"238" "s02" 46 "Comparison Vague" "LtoR" "Small" "Vague" 0.5 "Comparison" -0.5 "16:25:34" -0.25 30 "Choose a square with far fewer dots than the target" "Expected" 1940 7.57044325205737
"239" "s02" 47 "Matching Vague" "LtoR" "Large" "Vague" 0.5 "Matching" 0.5 "26:35:44" 0.25 40 "Choose a square with about the same number of dots as the target" "Near" 1421 7.2591161280971
"240" "s02" 48 "Matching Vague" "LtoR" "Large" "Vague" 0.5 "Matching" 0.5 "36:45:54" 0.75 50 "Choose a square with about the same number of dots as the target" "Expected" 2100 7.64969262371151
"241" "s02" 49 "Comparison Crisp" "RtoL" "Small" "Crisp" -0.5 "Comparison" -0.5 "06:15:24" -0.75 20 "Choose a square with fewer dots than the target" "Near" 2249 7.71824095195932
"242" "s02" 50 "Matching Vague" "LtoR" "Small" "Vague" 0.5 "Matching" 0.5 "16:25:34" -0.25 20 "Choose a square with about the same number of dots as the target" "Near" 3331 8.11102783819368
"243" "s02" 51 "Matching Vague" "RtoL" "Large" "Vague" 0.5 "Matching" 0.5 "26:35:44" 0.25 40 "Choose a square with about the same number of dots as the target" "Far" 1548 7.34471905414967
"244" "s02" 52 "Matching Crisp" "LtoR" "Small" "Crisp" -0.5 "Matching" 0.5 "36:45:54" 0.75 36 "Choose a square with the same number of dots as the target" "Expected" 1450 7.27931883541462
"245" "s02" 53 "Matching Vague" "LtoR" "Large" "Vague" 0.5 "Matching" 0.5 "06:15:24" -0.75 20 "Choose a square with about the same number of dots as the target" "Near" 1045 6.95177216439891
"246" "s02" 54 "Matching Vague" "LtoR" "Large" "Vague" 0.5 "Matching" 0.5 "16:25:34" -0.25 30 "Choose a square with about the same number of dots as the target" "Near" 2559 7.84737183615979
"247" "s02" 55 "Comparison Crisp" "RtoL" "Large" "Crisp" -0.5 "Comparison" -0.5 "26:35:44" 0.25 30 "Choose a square with more dots than the target" "Expected" 2785 7.93200315236138
"248" "s02" 56 "Comparison Crisp" "LtoR" "Small" "Crisp" -0.5 "Comparison" -0.5 "36:45:54" 0.75 50 "Choose a square with fewer dots than the target" "Expected" 2304 7.74240202181578
"249" "s02" 57 "Matching Vague" "RtoL" "Small" "Vague" 0.5 "Matching" 0.5 "06:15:24" -0.75 10 "Choose a square with about the same number of dots as the target" "Near" 2820 7.94449216393216
"250" "s02" 58 "Matching Crisp" "LtoR" "Small" "Crisp" -0.5 "Matching" 0.5 "16:25:34" -0.25 16 "Choose a square with the same number of dots as the target" "Expected" 3247 8.08548677210285
"251" "s02" 59 "Comparison Crisp" "RtoL" "Small" "Crisp" -0.5 "Comparison" -0.5 "26:35:44" 0.25 40 "Choose a square with fewer dots than the target" "Expected" 1961 7.58120982619635
"252" "s02" 60 "Comparison Crisp" "RtoL" "Large" "Crisp" -0.5 "Comparison" -0.5 "36:45:54" 0.75 40 "Choose a square with more dots than the target" "Expected" 1095 6.9985096422506
"253" "s02" 61 "Comparison Vague" "LtoR" "Large" "Vague" 0.5 "Comparison" -0.5 "06:15:24" -0.75 10 "Choose a square with far more dots than the target" "Expected" 668 6.50428817353665
"254" "s02" 62 "Matching Crisp" "RtoL" "Large" "Crisp" -0.5 "Matching" 0.5 "16:25:34" -0.25 34 "Choose a square with the same number of dots as the target" "Near" 2690 7.89729647259588
"255" "s02" 63 "Matching Vague" "LtoR" "Small" "Vague" 0.5 "Matching" 0.5 "26:35:44" 0.25 30 "Choose a square with about the same number of dots as the target" "Near" 2675 7.89170465933011
"256" "s02" 64 "Matching Vague" "RtoL" "Large" "Vague" 0.5 "Matching" 0.5 "36:45:54" 0.75 50 "Choose a square with about the same number of dots as the target" "Near" 2255 7.72090525193678
"257" "s02" 65 "Matching Crisp" "LtoR" "Large" "Crisp" -0.5 "Matching" 0.5 "06:15:24" -0.75 24 "Choose a square with the same number of dots as the target" "Expected" 1640 7.40245152081824
"258" "s02" 66 "Comparison Crisp" "LtoR" "Large" "Crisp" -0.5 "Comparison" -0.5 "16:25:34" -0.25 20 "Choose a square with more dots than the target" "Expected" 984 6.89162589705225
"259" "s02" 67 "Comparison Crisp" "RtoL" "Small" "Crisp" -0.5 "Comparison" -0.5 "26:35:44" 0.25 40 "Choose a square with fewer dots than the target" "Expected" 1948 7.57455848420248
"260" "s02" 68 "Comparison Vague" "LtoR" "Large" "Vague" 0.5 "Comparison" -0.5 "36:45:54" 0.75 40 "Choose a square with far more dots than the target" "Expected" 1497 7.31121838441963
"261" "s02" 69 "Matching Crisp" "RtoL" "Small" "Crisp" -0.5 "Matching" 0.5 "06:15:24" -0.75 6 "Choose a square with the same number of dots as the target" "Expected" 2293 7.7376162828579
"262" "s02" 70 "Comparison Crisp" "RtoL" "Small" "Crisp" -0.5 "Comparison" -0.5 "16:25:34" -0.25 30 "Choose a square with fewer dots than the target" "Expected" 1715 7.44716835960004
"263" "s02" 71 "Matching Crisp" "LtoR" "Large" "Crisp" -0.5 "Matching" 0.5 "26:35:44" 0.25 44 "Choose a square with the same number of dots as the target" "Expected" 1566 7.35627987655075
"264" "s02" 72 "Comparison Crisp" "LtoR" "Small" "Crisp" -0.5 "Comparison" -0.5 "36:45:54" 0.75 50 "Choose a square with fewer dots than the target" "Expected" 2089 7.64444076155657
"265" "s02" 73 "Matching Vague" "LtoR" "Small" "Vague" 0.5 "Matching" 0.5 "06:15:24" -0.75 10 "Choose a square with about the same number of dots as the target" "Near" 3617 8.1934002319521
"266" "s02" 74 "Comparison Vague" "RtoL" "Large" "Vague" 0.5 "Comparison" -0.5 "16:25:34" -0.25 20 "Choose a square with far more dots than the target" "Expected" 952 6.85856503479136
"267" "s02" 75 "Matching Vague" "LtoR" "Small" "Vague" 0.5 "Matching" 0.5 "26:35:44" 0.25 30 "Choose a square with about the same number of dots as the target" "Expected" 1512 7.32118855673948
"268" "s02" 76 "Comparison Crisp" "RtoL" "Large" "Crisp" -0.5 "Comparison" -0.5 "36:45:54" 0.75 40 "Choose a square with more dots than the target" "Expected" 2072 7.63626960337937
"269" "s02" 77 "Comparison Crisp" "RtoL" "Small" "Crisp" -0.5 "Comparison" -0.5 "06:15:24" -0.75 20 "Choose a square with fewer dots than the target" "Expected" 1833 7.5137092478397
"270" "s02" 78 "Comparison Vague" "LtoR" "Large" "Vague" 0.5 "Comparison" -0.5 "16:25:34" -0.25 20 "Choose a square with far more dots than the target" "Expected" 1151 7.04838640872188
"271" "s02" 79 "Matching Vague" "LtoR" "Large" "Vague" 0.5 "Matching" 0.5 "26:35:44" 0.25 40 "Choose a square with about the same number of dots as the target" "Near" 1240 7.12286665859908
"272" "s02" 80 "Matching Crisp" "LtoR" "Large" "Crisp" -0.5 "Matching" 0.5 "36:45:54" 0.75 54 "Choose a square with the same number of dots as the target" "Near" 2393 7.78030308790837
"273" "s02" 81 "Comparison Vague" "RtoL" "Large" "Vague" 0.5 "Comparison" -0.5 "06:15:24" -0.75 10 "Choose a square with far more dots than the target" "Expected" 1021 6.92853781816467
"274" "s02" 82 "Matching Crisp" "RtoL" "Large" "Crisp" -0.5 "Matching" 0.5 "16:25:34" -0.25 34 "Choose a square with the same number of dots as the target" "Near" 3901 8.26898820950666
"275" "s02" 83 "Comparison Vague" "RtoL" "Large" "Vague" 0.5 "Comparison" -0.5 "26:35:44" 0.25 30 "Choose a square with far more dots than the target" "Expected" 3839 8.2529671950008
"276" "s02" 84 "Comparison Crisp" "RtoL" "Small" "Crisp" -0.5 "Comparison" -0.5 "36:45:54" 0.75 50 "Choose a square with fewer dots than the target" "Near" 1717 7.44833386089748
"277" "s02" 85 "Comparison Vague" "LtoR" "Large" "Vague" 0.5 "Comparison" -0.5 "06:15:24" -0.75 10 "Choose a square with far more dots than the target" "Expected" 756 6.62804137617953
"278" "s02" 86 "Matching Crisp" "LtoR" "Small" "Crisp" -0.5 "Matching" 0.5 "16:25:34" -0.25 16 "Choose a square with the same number of dots as the target" "Expected" 3735 8.22550309756692
"279" "s02" 87 "Matching Crisp" "LtoR" "Small" "Crisp" -0.5 "Matching" 0.5 "26:35:44" 0.25 26 "Choose a square with the same number of dots as the target" "Expected" 1327 7.19067603433221
"280" "s02" 88 "Matching Crisp" "LtoR" "Small" "Crisp" -0.5 "Matching" 0.5 "36:45:54" 0.75 36 "Choose a square with the same number of dots as the target" "Expected" 1433 7.26752542782817
"281" "s02" 89 "Comparison Vague" "RtoL" "Small" "Vague" 0.5 "Comparison" -0.5 "06:15:24" -0.75 20 "Choose a square with far fewer dots than the target" "Expected" 1192 7.0833878476253
"282" "s02" 90 "Matching Vague" "LtoR" "Small" "Vague" 0.5 "Matching" 0.5 "16:25:34" -0.25 20 "Choose a square with about the same number of dots as the target" "Expected" 1286 7.15929190479756
"283" "s02" 91 "Matching Vague" "RtoL" "Large" "Vague" 0.5 "Matching" 0.5 "26:35:44" 0.25 40 "Choose a square with about the same number of dots as the target" "Expected" 1942 7.57147364885127
"284" "s02" 92 "Matching Vague" "LtoR" "Large" "Vague" 0.5 "Matching" 0.5 "36:45:54" 0.75 50 "Choose a square with about the same number of dots as the target" "Near" 2336 7.75619534394812
"285" "s02" 93 "Comparison Crisp" "LtoR" "Large" "Crisp" -0.5 "Comparison" -0.5 "06:15:24" -0.75 10 "Choose a square with more dots than the target" "Expected" 761 6.63463335786169
"286" "s02" 94 "Matching Vague" "LtoR" "Large" "Vague" 0.5 "Matching" 0.5 "16:25:34" -0.25 30 "Choose a square with about the same number of dots as the target" "Near" 1003 6.91075078796194
"287" "s02" 95 "Comparison Vague" "LtoR" "Small" "Vague" 0.5 "Comparison" -0.5 "26:35:44" 0.25 40 "Choose a square with far fewer dots than the target" "Expected" 1062 6.96790920180188
"288" "s02" 96 "Matching Crisp" "RtoL" "Small" "Crisp" -0.5 "Matching" 0.5 "36:45:54" 0.75 36 "Choose a square with the same number of dots as the target" "Near" 1908 7.55381085200823
"289" "s02" 97 "Matching Crisp" "RtoL" "Large" "Crisp" -0.5 "Matching" 0.5 "06:15:24" -0.75 24 "Choose a square with the same number of dots as the target" "Near" 991 6.89871453432999
"290" "s02" 98 "Matching Vague" "RtoL" "Small" "Vague" 0.5 "Matching" 0.5 "16:25:34" -0.25 20 "Choose a square with about the same number of dots as the target" "Expected" 1626 7.39387829010776
"291" "s02" 99 "Comparison Vague" "LtoR" "Large" "Vague" 0.5 "Comparison" -0.5 "26:35:44" 0.25 30 "Choose a square with far more dots than the target" "Expected" 733 6.59714570188665
"292" "s02" 100 "Matching Vague" "RtoL" "Large" "Vague" 0.5 "Matching" 0.5 "36:45:54" 0.75 50 "Choose a square with about the same number of dots as the target" "Near" 1078 6.98286275146894
"293" "s02" 101 "Comparison Vague" "LtoR" "Small" "Vague" 0.5 "Comparison" -0.5 "06:15:24" -0.75 20 "Choose a square with far fewer dots than the target" "Expected" 813 6.70073110954781
"294" "s02" 102 "Comparison Vague" "LtoR" "Small" "Vague" 0.5 "Comparison" -0.5 "16:25:34" -0.25 30 "Choose a square with far fewer dots than the target" "Expected" 777 6.65544035036765
"295" "s02" 103 "Comparison Crisp" "LtoR" "Large" "Crisp" -0.5 "Comparison" -0.5 "26:35:44" 0.25 30 "Choose a square with more dots than the target" "Expected" 661 6.49375383985169
"296" "s02" 104 "Comparison Vague" "RtoL" "Small" "Vague" 0.5 "Comparison" -0.5 "36:45:54" 0.75 50 "Choose a square with far fewer dots than the target" "Expected" 3076 8.03138533062553
"297" "s02" 105 "Matching Vague" "LtoR" "Large" "Vague" 0.5 "Matching" 0.5 "06:15:24" -0.75 20 "Choose a square with about the same number of dots as the target" "Near" 2140 7.6685611080159
"298" "s02" 106 "Matching Crisp" "LtoR" "Large" "Crisp" -0.5 "Matching" 0.5 "16:25:34" -0.25 34 "Choose a square with the same number of dots as the target" "Near" 1695 7.43543801981455
"299" "s02" 107 "Comparison Crisp" "LtoR" "Small" "Crisp" -0.5 "Comparison" -0.5 "26:35:44" 0.25 40 "Choose a square with fewer dots than the target" "Expected" 1170 7.0647590277918
"300" "s02" 108 "Comparison Crisp" "LtoR" "Large" "Crisp" -0.5 "Comparison" -0.5 "36:45:54" 0.75 40 "Choose a square with more dots than the target" "Expected" 710 6.56526497003536
"301" "s02" 109 "Matching Vague" "RtoL" "Small" "Vague" 0.5 "Matching" 0.5 "06:15:24" -0.75 10 "Choose a square with about the same number of dots as the target" "Expected" 2566 7.85010354517558
"302" "s02" 110 "Comparison Crisp" "LtoR" "Small" "Crisp" -0.5 "Comparison" -0.5 "16:25:34" -0.25 30 "Choose a square with fewer dots than the target" "Expected" 1492 7.30787278076371
"303" "s02" 111 "Comparison Vague" "RtoL" "Small" "Vague" 0.5 "Comparison" -0.5 "26:35:44" 0.25 40 "Choose a square with far fewer dots than the target" "Expected" 2315 7.74716496652033
"304" "s02" 112 "Comparison Vague" "RtoL" "Large" "Vague" 0.5 "Comparison" -0.5 "36:45:54" 0.75 40 "Choose a square with far more dots than the target" "Expected" 2472 7.81278281857758
"305" "s02" 113 "Matching Vague" "RtoL" "Large" "Vague" 0.5 "Matching" 0.5 "06:15:24" -0.75 20 "Choose a square with about the same number of dots as the target" "Expected" 2819 7.94413749111411
"306" "s02" 114 "Matching Crisp" "RtoL" "Small" "Crisp" -0.5 "Matching" 0.5 "16:25:34" -0.25 16 "Choose a square with the same number of dots as the target" "Expected" 1274 7.14991683613211
"307" "s02" 115 "Matching Crisp" "RtoL" "Small" "Crisp" -0.5 "Matching" 0.5 "26:35:44" 0.25 26 "Choose a square with the same number of dots as the target" "Expected" 2615 7.86901937649902
"308" "s02" 116 "Matching Vague" "RtoL" "Small" "Vague" 0.5 "Matching" 0.5 "36:45:54" 0.75 40 "Choose a square with about the same number of dots as the target" "Expected" 2260 7.72312009226633
"309" "s02" 117 "Matching Crisp" "LtoR" "Small" "Crisp" -0.5 "Matching" 0.5 "06:15:24" -0.75 6 "Choose a square with the same number of dots as the target" "Expected" 1724 7.45240245122364
"310" "s02" 118 "Comparison Crisp" "RtoL" "Large" "Crisp" -0.5 "Comparison" -0.5 "16:25:34" -0.25 20 "Choose a square with more dots than the target" "Expected" 973 6.880384082186
"311" "s02" 119 "Matching Crisp" "RtoL" "Large" "Crisp" -0.5 "Matching" 0.5 "26:35:44" 0.25 44 "Choose a square with the same number of dots as the target" "Near" 712 6.56807791141198
"312" "s02" 120 "Comparison Vague" "LtoR" "Small" "Vague" 0.5 "Comparison" -0.5 "36:45:54" 0.75 50 "Choose a square with far fewer dots than the target" "Expected" 1002 6.90975328164481
"313" "s02" 121 "Comparison Crisp" "RtoL" "Large" "Crisp" -0.5 "Comparison" -0.5 "06:15:24" -0.75 10 "Choose a square with more dots than the target" "Expected" 642 6.46458830368996
"314" "s02" 122 "Comparison Vague" "RtoL" "Small" "Vague" 0.5 "Comparison" -0.5 "16:25:34" -0.25 30 "Choose a square with far fewer dots than the target" "Expected" 1993 7.59739632021279
"315" "s02" 123 "Comparison Crisp" "RtoL" "Large" "Crisp" -0.5 "Comparison" -0.5 "26:35:44" 0.25 30 "Choose a square with more dots than the target" "Expected" 789 6.67076632084587
"316" "s02" 124 "Matching Crisp" "RtoL" "Large" "Crisp" -0.5 "Matching" 0.5 "36:45:54" 0.75 54 "Choose a square with the same number of dots as the target" "Near" 1009 6.91671502035361
"317" "s02" 125 "Comparison Crisp" "LtoR" "Small" "Crisp" -0.5 "Comparison" -0.5 "06:15:24" -0.75 20 "Choose a square with fewer dots than the target" "Expected" 1065 6.97073007814353
"318" "s02" 126 "Matching Vague" "RtoL" "Large" "Vague" 0.5 "Matching" 0.5 "16:25:34" -0.25 30 "Choose a square with about the same number of dots as the target" "Near" 1265 7.14282740116162
"319" "s02" 127 "Matching Vague" "RtoL" "Small" "Vague" 0.5 "Matching" 0.5 "26:35:44" 0.25 30 "Choose a square with about the same number of dots as the target" "Near" 890 6.79122146272619
"320" "s02" 128 "Matching Vague" "LtoR" "Small" "Vague" 0.5 "Matching" 0.5 "36:45:54" 0.75 40 "Choose a square with about the same number of dots as the target" "Near" 659 6.49072353450251
"321" "s02" 129 "Matching Crisp" "LtoR" "Small" "Crisp" -0.5 "Matching" 0.5 "06:15:24" -0.75 6 "Choose a square with the same number of dots as the target" "Expected" 1410 7.25134498337221
"322" "s02" 130 "Matching Crisp" "RtoL" "Small" "Crisp" -0.5 "Matching" 0.5 "16:25:34" -0.25 16 "Choose a square with the same number of dots as the target" "Expected" 3492 8.15822991695949
"323" "s02" 131 "Comparison Vague" "RtoL" "Small" "Vague" 0.5 "Comparison" -0.5 "26:35:44" 0.25 40 "Choose a square with far fewer dots than the target" "Expected" 1831 7.51261754467451
"324" "s02" 132 "Comparison Crisp" "LtoR" "Small" "Crisp" -0.5 "Comparison" -0.5 "36:45:54" 0.75 50 "Choose a square with fewer dots than the target" "Expected" 1792 7.49108759353488
"325" "s02" 133 "Comparison Crisp" "RtoL" "Small" "Crisp" -0.5 "Comparison" -0.5 "06:15:24" -0.75 20 "Choose a square with fewer dots than the target" "Expected" 1091 6.99484998583307
"326" "s02" 134 "Matching Crisp" "LtoR" "Small" "Crisp" -0.5 "Matching" 0.5 "16:25:34" -0.25 16 "Choose a square with the same number of dots as the target" "Expected" 1885 7.54168309988211
"327" "s02" 135 "Matching Crisp" "LtoR" "Large" "Crisp" -0.5 "Matching" 0.5 "26:35:44" 0.25 44 "Choose a square with the same number of dots as the target" "Near" 1663 7.41637847919293
"328" "s02" 136 "Comparison Vague" "RtoL" "Small" "Vague" 0.5 "Comparison" -0.5 "36:45:54" 0.75 50 "Choose a square with far fewer dots than the target" "Expected" 2155 7.67554600253785
"329" "s02" 137 "Comparison Vague" "RtoL" "Small" "Vague" 0.5 "Comparison" -0.5 "06:15:24" -0.75 20 "Choose a square with far fewer dots than the target" "Expected" 831 6.72262979485545
"330" "s02" 138 "Comparison Vague" "LtoR" "Small" "Vague" 0.5 "Comparison" -0.5 "16:25:34" -0.25 30 "Choose a square with far fewer dots than the target" "Expected" 1213 7.10085190894405
"331" "s02" 139 "Comparison Vague" "LtoR" "Large" "Vague" 0.5 "Comparison" -0.5 "26:35:44" 0.25 30 "Choose a square with far more dots than the target" "Expected" 871 6.7696419768525
"332" "s02" 140 "Comparison Crisp" "RtoL" "Large" "Crisp" -0.5 "Comparison" -0.5 "36:45:54" 0.75 40 "Choose a square with more dots than the target" "Expected" 1713 7.44600149832412
"333" "s02" 141 "Comparison Crisp" "RtoL" "Large" "Crisp" -0.5 "Comparison" -0.5 "06:15:24" -0.75 10 "Choose a square with more dots than the target" "Expected" 1866 7.53155238140729
"334" "s02" 142 "Matching Vague" "RtoL" "Small" "Vague" 0.5 "Matching" 0.5 "16:25:34" -0.25 20 "Choose a square with about the same number of dots as the target" "Expected" 1765 7.4759059693674
"335" "s02" 143 "Comparison Crisp" "RtoL" "Small" "Crisp" -0.5 "Comparison" -0.5 "26:35:44" 0.25 40 "Choose a square with fewer dots than the target" "Expected" 1849 7.52240023138712
"336" "s02" 144 "Comparison Vague" "LtoR" "Large" "Vague" 0.5 "Comparison" -0.5 "36:45:54" 0.75 40 "Choose a square with far more dots than the target" "Expected" 1261 7.13966033596492
"337" "s02" 145 "Matching Vague" "LtoR" "Small" "Vague" 0.5 "Matching" 0.5 "06:15:24" -0.75 10 "Choose a square with about the same number of dots as the target" "Near" 5716 8.65102453904976
"338" "s02" 146 "Comparison Vague" "RtoL" "Large" "Vague" 0.5 "Comparison" -0.5 "16:25:34" -0.25 20 "Choose a square with far more dots than the target" "Expected" 992 6.89972310728487
"339" "s02" 147 "Comparison Crisp" "RtoL" "Large" "Crisp" -0.5 "Comparison" -0.5 "26:35:44" 0.25 30 "Choose a square with more dots than the target" "Expected" 816 6.70441435496411
"340" "s02" 148 "Matching Crisp" "RtoL" "Small" "Crisp" -0.5 "Matching" 0.5 "36:45:54" 0.75 36 "Choose a square with the same number of dots as the target" "Expected" 2507 7.82684209815829
"341" "s02" 149 "Comparison Vague" "LtoR" "Large" "Vague" 0.5 "Comparison" -0.5 "06:15:24" -0.75 10 "Choose a square with far more dots than the target" "Expected" 980 6.88755257166462
"342" "s02" 150 "Matching Vague" "RtoL" "Large" "Vague" 0.5 "Matching" 0.5 "16:25:34" -0.25 30 "Choose a square with about the same number of dots as the target" "Near" 2710 7.90470391387375
"343" "s02" 151 "Matching Crisp" "LtoR" "Small" "Crisp" -0.5 "Matching" 0.5 "26:35:44" 0.25 26 "Choose a square with the same number of dots as the target" "Expected" 1506 7.31721240835984
"344" "s02" 152 "Comparison Vague" "RtoL" "Large" "Vague" 0.5 "Comparison" -0.5 "36:45:54" 0.75 40 "Choose a square with far more dots than the target" "Expected" 961 6.86797440897029
"345" "s02" 153 "Matching Crisp" "RtoL" "Small" "Crisp" -0.5 "Matching" 0.5 "06:15:24" -0.75 6 "Choose a square with the same number of dots as the target" "Near" 4866 8.49002752334347
"346" "s02" 154 "Matching Vague" "LtoR" "Large" "Vague" 0.5 "Matching" 0.5 "16:25:34" -0.25 30 "Choose a square with about the same number of dots as the target" "Expected" 1017 6.92461239604856
"347" "s02" 155 "Matching Vague" "RtoL" "Large" "Vague" 0.5 "Matching" 0.5 "26:35:44" 0.25 40 "Choose a square with about the same number of dots as the target" "Near" 857 6.75343791859778
"348" "s02" 156 "Matching Vague" "RtoL" "Small" "Vague" 0.5 "Matching" 0.5 "36:45:54" 0.75 40 "Choose a square with about the same number of dots as the target" "Near" 834 6.72623340235875
"349" "s02" 157 "Comparison Vague" "LtoR" "Small" "Vague" 0.5 "Comparison" -0.5 "06:15:24" -0.75 20 "Choose a square with far fewer dots than the target" "Expected" 627 6.44094654063292
"350" "s02" 158 "Comparison Crisp" "RtoL" "Small" "Crisp" -0.5 "Comparison" -0.5 "16:25:34" -0.25 30 "Choose a square with fewer dots than the target" "Expected" 937 6.84268328223842
"351" "s02" 159 "Matching Vague" "LtoR" "Large" "Vague" 0.5 "Matching" 0.5 "26:35:44" 0.25 40 "Choose a square with about the same number of dots as the target" "Near" 710 6.56526497003536
"352" "s02" 160 "Matching Vague" "LtoR" "Small" "Vague" 0.5 "Matching" 0.5 "36:45:54" 0.75 40 "Choose a square with about the same number of dots as the target" "Near" 2009 7.60539236481493
"353" "s02" 161 "Matching Vague" "LtoR" "Large" "Vague" 0.5 "Matching" 0.5 "06:15:24" -0.75 20 "Choose a square with about the same number of dots as the target" "Near" 857 6.75343791859778
"354" "s02" 162 "Comparison Vague" "RtoL" "Small" "Vague" 0.5 "Comparison" -0.5 "16:25:34" -0.25 30 "Choose a square with far fewer dots than the target" "Expected" 1949 7.57507169950756
"355" "s02" 163 "Comparison Crisp" "LtoR" "Large" "Crisp" -0.5 "Comparison" -0.5 "26:35:44" 0.25 30 "Choose a square with more dots than the target" "Expected" 615 6.42162226780652
"356" "s02" 164 "Matching Vague" "LtoR" "Large" "Vague" 0.5 "Matching" 0.5 "36:45:54" 0.75 50 "Choose a square with about the same number of dots as the target" "Near" 926 6.83087423464618
"357" "s02" 165 "Matching Vague" "RtoL" "Small" "Vague" 0.5 "Matching" 0.5 "06:15:24" -0.75 10 "Choose a square with about the same number of dots as the target" "Expected" 1110 7.01211529430638
"358" "s02" 166 "Comparison Vague" "LtoR" "Large" "Vague" 0.5 "Comparison" -0.5 "16:25:34" -0.25 20 "Choose a square with far more dots than the target" "Expected" 599 6.39526159811545
"359" "s02" 167 "Comparison Vague" "LtoR" "Small" "Vague" 0.5 "Comparison" -0.5 "26:35:44" 0.25 40 "Choose a square with far fewer dots than the target" "Expected" 1196 7.08673793451058
"360" "s02" 168 "Matching Crisp" "RtoL" "Large" "Crisp" -0.5 "Matching" 0.5 "36:45:54" 0.75 54 "Choose a square with the same number of dots as the target" "Expected" 2797 7.93630269320196
"361" "s02" 169 "Comparison Vague" "RtoL" "Large" "Vague" 0.5 "Comparison" -0.5 "06:15:24" -0.75 10 "Choose a square with far more dots than the target" "Expected" 1107 7.00940893270864
"362" "s02" 170 "Comparison Crisp" "LtoR" "Large" "Crisp" -0.5 "Comparison" -0.5 "16:25:34" -0.25 20 "Choose a square with more dots than the target" "Expected" 1707 7.44249272279444
"363" "s02" 171 "Matching Vague" "RtoL" "Small" "Vague" 0.5 "Matching" 0.5 "26:35:44" 0.25 30 "Choose a square with about the same number of dots as the target" "Near" 788 6.66949808985788
"364" "s02" 172 "Matching Crisp" "LtoR" "Small" "Crisp" -0.5 "Matching" 0.5 "36:45:54" 0.75 36 "Choose a square with the same number of dots as the target" "Far" 1609 7.38336814699238
"365" "s02" 173 "Matching Crisp" "RtoL" "Large" "Crisp" -0.5 "Matching" 0.5 "06:15:24" -0.75 24 "Choose a square with the same number of dots as the target" "Near" 771 6.64768837356333
"366" "s02" 174 "Matching Crisp" "RtoL" "Large" "Crisp" -0.5 "Matching" 0.5 "16:25:34" -0.25 34 "Choose a square with the same number of dots as the target" "Near" 490 6.19440539110467
"367" "s02" 175 "Comparison Crisp" "LtoR" "Small" "Crisp" -0.5 "Comparison" -0.5 "26:35:44" 0.25 40 "Choose a square with fewer dots than the target" "Expected" 1054 6.96034772910131
"368" "s02" 176 "Matching Crisp" "LtoR" "Large" "Crisp" -0.5 "Matching" 0.5 "36:45:54" 0.75 54 "Choose a square with the same number of dots as the target" "Near" 2211 7.70120018085745
"369" "s02" 177 "Matching Crisp" "LtoR" "Large" "Crisp" -0.5 "Matching" 0.5 "06:15:24" -0.75 24 "Choose a square with the same number of dots as the target" "Near" 776 6.65415252018322
"370" "s02" 178 "Matching Vague" "LtoR" "Small" "Vague" 0.5 "Matching" 0.5 "16:25:34" -0.25 20 "Choose a square with about the same number of dots as the target" "Near" 1216 7.10332206252611
"371" "s02" 179 "Matching Crisp" "RtoL" "Large" "Crisp" -0.5 "Matching" 0.5 "26:35:44" 0.25 44 "Choose a square with the same number of dots as the target" "Expected" 1109 7.01121398735037
"372" "s02" 180 "Comparison Vague" "LtoR" "Small" "Vague" 0.5 "Comparison" -0.5 "36:45:54" 0.75 50 "Choose a square with far fewer dots than the target" "Expected" 1995 7.59839932932396
"373" "s02" 181 "Matching Vague" "RtoL" "Large" "Vague" 0.5 "Matching" 0.5 "06:15:24" -0.75 20 "Choose a square with about the same number of dots as the target" "Near" 1022 6.92951677076365
"374" "s02" 182 "Comparison Crisp" "RtoL" "Large" "Crisp" -0.5 "Comparison" -0.5 "16:25:34" -0.25 20 "Choose a square with more dots than the target" "Near" 1502 7.31455283232408
"375" "s02" 183 "Matching Crisp" "RtoL" "Small" "Crisp" -0.5 "Matching" 0.5 "26:35:44" 0.25 26 "Choose a square with the same number of dots as the target" "Expected" 1671 7.42117752859539
"376" "s02" 184 "Comparison Crisp" "RtoL" "Small" "Crisp" -0.5 "Comparison" -0.5 "36:45:54" 0.75 50 "Choose a square with fewer dots than the target" "Expected" 2787 7.93272102748195
"377" "s02" 185 "Comparison Crisp" "LtoR" "Large" "Crisp" -0.5 "Comparison" -0.5 "06:15:24" -0.75 10 "Choose a square with more dots than the target" "Expected" 1732 7.45703208912238
"378" "s02" 186 "Comparison Crisp" "LtoR" "Small" "Crisp" -0.5 "Comparison" -0.5 "16:25:34" -0.25 30 "Choose a square with fewer dots than the target" "Expected" 1080 6.98471632011827
"379" "s02" 187 "Matching Vague" "LtoR" "Small" "Vague" 0.5 "Matching" 0.5 "26:35:44" 0.25 30 "Choose a square with about the same number of dots as the target" "Expected" 3704 8.21716859576607
"380" "s02" 188 "Comparison Crisp" "LtoR" "Large" "Crisp" -0.5 "Comparison" -0.5 "36:45:54" 0.75 40 "Choose a square with more dots than the target" "Expected" 600 6.39692965521615
"381" "s02" 189 "Comparison Crisp" "LtoR" "Small" "Crisp" -0.5 "Comparison" -0.5 "06:15:24" -0.75 20 "Choose a square with fewer dots than the target" "Expected" 779 6.65801104587075
"382" "s02" 190 "Matching Crisp" "LtoR" "Large" "Crisp" -0.5 "Matching" 0.5 "16:25:34" -0.25 34 "Choose a square with the same number of dots as the target" "Near" 974 6.88141130364254
"383" "s02" 191 "Comparison Vague" "RtoL" "Large" "Vague" 0.5 "Comparison" -0.5 "26:35:44" 0.25 30 "Choose a square with far more dots than the target" "Expected" 1805 7.49831587076698
"384" "s02" 192 "Matching Vague" "RtoL" "Large" "Vague" 0.5 "Matching" 0.5 "36:45:54" 0.75 50 "Choose a square with about the same number of dots as the target" "Expected" 2586 7.8578675593318
"385" "s03" 1 "Comparison Crisp" "RtoL" "Small" "Crisp" -0.5 "Comparison" -0.5 "06:15:24" -0.75 20 "Choose a square with fewer dots than the target" "Expected" 1737 7.4599147662411
"386" "s03" 2 "Matching Crisp" "LtoR" "Small" "Crisp" -0.5 "Matching" 0.5 "16:25:34" -0.25 16 "Choose a square with the same number of dots as the target" "Expected" 2023 7.61233683716775
"387" "s03" 3 "Matching Crisp" "LtoR" "Large" "Crisp" -0.5 "Matching" 0.5 "26:35:44" 0.25 44 "Choose a square with the same number of dots as the target" "Expected" 3033 8.01730750768858
"388" "s03" 4 "Comparison Vague" "LtoR" "Small" "Vague" 0.5 "Comparison" -0.5 "36:45:54" 0.75 50 "Choose a square with far fewer dots than the target" "Expected" 1818 7.50549227473742
"389" "s03" 5 "Matching Crisp" "LtoR" "Large" "Crisp" -0.5 "Matching" 0.5 "06:15:24" -0.75 24 "Choose a square with the same number of dots as the target" "Near" 4076 8.31287139434261
"390" "s03" 6 "Matching Crisp" "RtoL" "Small" "Crisp" -0.5 "Matching" 0.5 "16:25:34" -0.25 16 "Choose a square with the same number of dots as the target" "Expected" 3952 8.28197705886776
"391" "s03" 7 "Comparison Crisp" "RtoL" "Large" "Crisp" -0.5 "Comparison" -0.5 "26:35:44" 0.25 30 "Choose a square with more dots than the target" "Expected" 1630 7.39633529380081
"392" "s03" 8 "Matching Vague" "RtoL" "Small" "Vague" 0.5 "Matching" 0.5 "36:45:54" 0.75 40 "Choose a square with about the same number of dots as the target" "Near" 2436 7.79811262882979
"393" "s03" 9 "Comparison Crisp" "RtoL" "Large" "Crisp" -0.5 "Comparison" -0.5 "06:15:24" -0.75 10 "Choose a square with more dots than the target" "Expected" 2098 7.64873978895624
"394" "s03" 10 "Matching Vague" "LtoR" "Small" "Vague" 0.5 "Matching" 0.5 "16:25:34" -0.25 20 "Choose a square with about the same number of dots as the target" "Near" 1746 7.46508273639955
"395" "s03" 11 "Matching Vague" "RtoL" "Large" "Vague" 0.5 "Matching" 0.5 "26:35:44" 0.25 40 "Choose a square with about the same number of dots as the target" "Near" 3488 8.15708378502887
"396" "s03" 12 "Comparison Crisp" "RtoL" "Small" "Crisp" -0.5 "Comparison" -0.5 "36:45:54" 0.75 50 "Choose a square with fewer dots than the target" "Expected" 3117 8.04462627976734
"397" "s03" 13 "Comparison Vague" "RtoL" "Small" "Vague" 0.5 "Comparison" -0.5 "06:15:24" -0.75 20 "Choose a square with far fewer dots than the target" "Expected" 2147 7.67182679787878
"398" "s03" 14 "Matching Crisp" "LtoR" "Large" "Crisp" -0.5 "Matching" 0.5 "16:25:34" -0.25 34 "Choose a square with the same number of dots as the target" "Near" 2631 7.87511928104029
"399" "s03" 15 "Comparison Vague" "LtoR" "Small" "Vague" 0.5 "Comparison" -0.5 "26:35:44" 0.25 40 "Choose a square with far fewer dots than the target" "Expected" 1773 7.48042830607421
"400" "s03" 16 "Comparison Vague" "LtoR" "Large" "Vague" 0.5 "Comparison" -0.5 "36:45:54" 0.75 40 "Choose a square with far more dots than the target" "Expected" 1652 7.40974195408092
"401" "s03" 17 "Comparison Vague" "LtoR" "Large" "Vague" 0.5 "Comparison" -0.5 "06:15:24" -0.75 10 "Choose a square with far more dots than the target" "Expected" 1186 7.07834157955767
"402" "s03" 18 "Comparison Vague" "RtoL" "Small" "Vague" 0.5 "Comparison" -0.5 "16:25:34" -0.25 30 "Choose a square with far fewer dots than the target" "Expected" 2665 7.88795933659994
"403" "s03" 19 "Matching Crisp" "RtoL" "Large" "Crisp" -0.5 "Matching" 0.5 "26:35:44" 0.25 44 "Choose a square with the same number of dots as the target" "Expected" 2299 7.74022952476318
"404" "s03" 20 "Matching Vague" "RtoL" "Large" "Vague" 0.5 "Matching" 0.5 "36:45:54" 0.75 50 "Choose a square with about the same number of dots as the target" "Near" 6241 8.73889570493404
"405" "s03" 21 "Comparison Crisp" "LtoR" "Large" "Crisp" -0.5 "Comparison" -0.5 "06:15:24" -0.75 10 "Choose a square with more dots than the target" "Expected" 2744 7.91717198884578
"406" "s03" 22 "Comparison Crisp" "RtoL" "Small" "Crisp" -0.5 "Comparison" -0.5 "16:25:34" -0.25 30 "Choose a square with fewer dots than the target" "Expected" 5836 8.67180090964268
"407" "s03" 23 "Comparison Crisp" "RtoL" "Small" "Crisp" -0.5 "Comparison" -0.5 "26:35:44" 0.25 40 "Choose a square with fewer dots than the target" "Expected" 3332 8.11132800328673
"408" "s03" 24 "Comparison Crisp" "LtoR" "Large" "Crisp" -0.5 "Comparison" -0.5 "36:45:54" 0.75 40 "Choose a square with more dots than the target" "Expected" 4124 8.32457884513685
"409" "s03" 25 "Comparison Vague" "RtoL" "Large" "Vague" 0.5 "Comparison" -0.5 "06:15:24" -0.75 10 "Choose a square with far more dots than the target" "Expected" 1692 7.43366654016617
"410" "s03" 26 "Comparison Vague" "LtoR" "Small" "Vague" 0.5 "Comparison" -0.5 "16:25:34" -0.25 30 "Choose a square with far fewer dots than the target" "Expected" 1447 7.27724772663148
"411" "s03" 27 "Comparison Crisp" "LtoR" "Small" "Crisp" -0.5 "Comparison" -0.5 "26:35:44" 0.25 40 "Choose a square with fewer dots than the target" "Expected" 3352 8.11731246160197
"412" "s03" 28 "Matching Vague" "LtoR" "Small" "Vague" 0.5 "Matching" 0.5 "36:45:54" 0.75 40 "Choose a square with about the same number of dots as the target" "Near" 5384 8.59118687132456
"413" "s03" 29 "Matching Crisp" "LtoR" "Small" "Crisp" -0.5 "Matching" 0.5 "06:15:24" -0.75 6 "Choose a square with the same number of dots as the target" "Expected" 1843 7.51914995766982
"414" "s03" 30 "Comparison Vague" "LtoR" "Large" "Vague" 0.5 "Comparison" -0.5 "16:25:34" -0.25 20 "Choose a square with far more dots than the target" "Expected" 1303 7.17242457712485
"415" "s03" 31 "Comparison Crisp" "LtoR" "Large" "Crisp" -0.5 "Comparison" -0.5 "26:35:44" 0.25 30 "Choose a square with more dots than the target" "Near" 2306 7.743269700829
"416" "s03" 32 "Matching Vague" "LtoR" "Large" "Vague" 0.5 "Matching" 0.5 "36:45:54" 0.75 50 "Choose a square with about the same number of dots as the target" "Expected" 3469 8.15162164696975
"417" "s03" 33 "Matching Crisp" "RtoL" "Large" "Crisp" -0.5 "Matching" 0.5 "06:15:24" -0.75 24 "Choose a square with the same number of dots as the target" "Expected" 4464 8.40380050406115
"418" "s03" 34 "Comparison Vague" "RtoL" "Large" "Vague" 0.5 "Comparison" -0.5 "16:25:34" -0.25 20 "Choose a square with far more dots than the target" "Expected" 2336 7.75619534394812
"419" "s03" 35 "Comparison Vague" "LtoR" "Large" "Vague" 0.5 "Comparison" -0.5 "26:35:44" 0.25 30 "Choose a square with far more dots than the target" "Expected" 1411 7.25205395185281
"420" "s03" 36 "Comparison Crisp" "LtoR" "Small" "Crisp" -0.5 "Comparison" -0.5 "36:45:54" 0.75 50 "Choose a square with fewer dots than the target" "Expected" 1962 7.58171964012531
"421" "s03" 37 "Matching Vague" "RtoL" "Small" "Vague" 0.5 "Matching" 0.5 "06:15:24" -0.75 10 "Choose a square with about the same number of dots as the target" "Near" 3690 8.21338173703457
"422" "s03" 38 "Matching Vague" "LtoR" "Large" "Vague" 0.5 "Matching" 0.5 "16:25:34" -0.25 30 "Choose a square with about the same number of dots as the target" "Near" 1962 7.58171964012531
"423" "s03" 39 "Matching Vague" "RtoL" "Small" "Vague" 0.5 "Matching" 0.5 "26:35:44" 0.25 30 "Choose a square with about the same number of dots as the target" "Expected" 2434 7.79729127354747
"424" "s03" 40 "Comparison Vague" "RtoL" "Large" "Vague" 0.5 "Comparison" -0.5 "36:45:54" 0.75 40 "Choose a square with far more dots than the target" "Expected" 1921 7.56060116276856
"425" "s03" 41 "Matching Vague" "LtoR" "Large" "Vague" 0.5 "Matching" 0.5 "06:15:24" -0.75 20 "Choose a square with about the same number of dots as the target" "Near" 2973 7.9973268229981
"426" "s03" 42 "Comparison Crisp" "RtoL" "Large" "Crisp" -0.5 "Comparison" -0.5 "16:25:34" -0.25 20 "Choose a square with more dots than the target" "Expected" 4112 8.321664807135
"427" "s03" 43 "Comparison Vague" "RtoL" "Large" "Vague" 0.5 "Comparison" -0.5 "26:35:44" 0.25 30 "Choose a square with far more dots than the target" "Expected" 3529 8.16876982367527
"428" "s03" 44 "Matching Crisp" "RtoL" "Large" "Crisp" -0.5 "Matching" 0.5 "36:45:54" 0.75 54 "Choose a square with the same number of dots as the target" "Near" 5342 8.58335539366991
"429" "s03" 45 "Matching Vague" "RtoL" "Large" "Vague" 0.5 "Matching" 0.5 "06:15:24" -0.75 20 "Choose a square with about the same number of dots as the target" "Expected" 1918 7.55903825544338
"430" "s03" 46 "Matching Crisp" "RtoL" "Large" "Crisp" -0.5 "Matching" 0.5 "16:25:34" -0.25 34 "Choose a square with the same number of dots as the target" "Expected" 2200 7.69621263934641
"431" "s03" 47 "Matching Crisp" "LtoR" "Small" "Crisp" -0.5 "Matching" 0.5 "26:35:44" 0.25 26 "Choose a square with the same number of dots as the target" "Near" 3242 8.08394570229562
"432" "s03" 48 "Comparison Vague" "RtoL" "Small" "Vague" 0.5 "Comparison" -0.5 "36:45:54" 0.75 50 "Choose a square with far fewer dots than the target" "Expected" 1962 7.58171964012531
"433" "s03" 49 "Comparison Vague" "LtoR" "Small" "Vague" 0.5 "Comparison" -0.5 "06:15:24" -0.75 20 "Choose a square with far fewer dots than the target" "Expected" 1069 6.97447891102505
"434" "s03" 50 "Matching Vague" "RtoL" "Small" "Vague" 0.5 "Matching" 0.5 "16:25:34" -0.25 20 "Choose a square with about the same number of dots as the target" "Near" 4148 8.33038156934942
"435" "s03" 51 "Matching Vague" "LtoR" "Large" "Vague" 0.5 "Matching" 0.5 "26:35:44" 0.25 40 "Choose a square with about the same number of dots as the target" "Near" 1507 7.3178761986265
"436" "s03" 52 "Matching Crisp" "LtoR" "Small" "Crisp" -0.5 "Matching" 0.5 "36:45:54" 0.75 36 "Choose a square with the same number of dots as the target" "Expected" 1634 7.39878627541995
"437" "s03" 53 "Matching Vague" "LtoR" "Small" "Vague" 0.5 "Matching" 0.5 "06:15:24" -0.75 10 "Choose a square with about the same number of dots as the target" "Near" 2088 7.64396194900253
"438" "s03" 54 "Comparison Crisp" "LtoR" "Small" "Crisp" -0.5 "Comparison" -0.5 "16:25:34" -0.25 30 "Choose a square with fewer dots than the target" "Expected" 2467 7.81075811652936
"439" "s03" 55 "Matching Crisp" "RtoL" "Small" "Crisp" -0.5 "Matching" 0.5 "26:35:44" 0.25 26 "Choose a square with the same number of dots as the target" "Expected" 1691 7.43307534889858
"440" "s03" 56 "Comparison Crisp" "RtoL" "Large" "Crisp" -0.5 "Comparison" -0.5 "36:45:54" 0.75 40 "Choose a square with more dots than the target" "Expected" 1581 7.36581283720947
"441" "s03" 57 "Matching Crisp" "RtoL" "Small" "Crisp" -0.5 "Matching" 0.5 "06:15:24" -0.75 6 "Choose a square with the same number of dots as the target" "Expected" 2004 7.60290046220476
"442" "s03" 58 "Comparison Crisp" "LtoR" "Large" "Crisp" -0.5 "Comparison" -0.5 "16:25:34" -0.25 20 "Choose a square with more dots than the target" "Near" 2276 7.73017479524622
"443" "s03" 59 "Matching Vague" "LtoR" "Small" "Vague" 0.5 "Matching" 0.5 "26:35:44" 0.25 30 "Choose a square with about the same number of dots as the target" "Near" 3614 8.19257047115217
"444" "s03" 60 "Matching Crisp" "RtoL" "Small" "Crisp" -0.5 "Matching" 0.5 "36:45:54" 0.75 36 "Choose a square with the same number of dots as the target" "Expected" 1545 7.34277918933185
"445" "s03" 61 "Comparison Crisp" "LtoR" "Small" "Crisp" -0.5 "Comparison" -0.5 "06:15:24" -0.75 20 "Choose a square with fewer dots than the target" "Expected" 2103 7.6511201757027
"446" "s03" 62 "Matching Vague" "RtoL" "Large" "Vague" 0.5 "Matching" 0.5 "16:25:34" -0.25 30 "Choose a square with about the same number of dots as the target" "Near" 3564 8.1786387885907
"447" "s03" 63 "Comparison Vague" "RtoL" "Small" "Vague" 0.5 "Comparison" -0.5 "26:35:44" 0.25 40 "Choose a square with far fewer dots than the target" "Expected" 2820 7.94449216393216
"448" "s03" 64 "Matching Crisp" "LtoR" "Large" "Crisp" -0.5 "Matching" 0.5 "36:45:54" 0.75 54 "Choose a square with the same number of dots as the target" "Expected" 1347 7.20563517641036
"449" "s03" 65 "Comparison Crisp" "LtoR" "Small" "Crisp" -0.5 "Comparison" -0.5 "06:15:24" -0.75 20 "Choose a square with fewer dots than the target" "Expected" 1177 7.07072410726028
"450" "s03" 66 "Matching Vague" "RtoL" "Small" "Vague" 0.5 "Matching" 0.5 "16:25:34" -0.25 20 "Choose a square with about the same number of dots as the target" "Near" 1094 6.99759598298193
"451" "s03" 67 "Comparison Crisp" "RtoL" "Large" "Crisp" -0.5 "Comparison" -0.5 "26:35:44" 0.25 30 "Choose a square with more dots than the target" "Expected" 1341 7.20117088328168
"452" "s03" 68 "Matching Vague" "RtoL" "Large" "Vague" 0.5 "Matching" 0.5 "36:45:54" 0.75 50 "Choose a square with about the same number of dots as the target" "Expected" 1996 7.59890045687141
"453" "s03" 69 "Comparison Crisp" "RtoL" "Small" "Crisp" -0.5 "Comparison" -0.5 "06:15:24" -0.75 20 "Choose a square with fewer dots than the target" "Expected" 6077 8.71226643213535
"454" "s03" 70 "Comparison Vague" "RtoL" "Large" "Vague" 0.5 "Comparison" -0.5 "16:25:34" -0.25 20 "Choose a square with far more dots than the target" "Expected" 928 6.8330317327862
"455" "s03" 71 "Matching Crisp" "RtoL" "Small" "Crisp" -0.5 "Matching" 0.5 "26:35:44" 0.25 26 "Choose a square with the same number of dots as the target" "Near" 4590 8.43163530305459
"456" "s03" 72 "Comparison Crisp" "LtoR" "Large" "Crisp" -0.5 "Comparison" -0.5 "36:45:54" 0.75 40 "Choose a square with more dots than the target" "Expected" 1234 7.11801620446533
"457" "s03" 73 "Comparison Vague" "RtoL" "Large" "Vague" 0.5 "Comparison" -0.5 "06:15:24" -0.75 10 "Choose a square with far more dots than the target" "Expected" 1585 7.36833968631138
"458" "s03" 74 "Comparison Crisp" "RtoL" "Small" "Crisp" -0.5 "Comparison" -0.5 "16:25:34" -0.25 30 "Choose a square with fewer dots than the target" "Expected" 2225 7.70751219460034
"459" "s03" 75 "Comparison Vague" "LtoR" "Small" "Vague" 0.5 "Comparison" -0.5 "26:35:44" 0.25 40 "Choose a square with far fewer dots than the target" "Expected" 1973 7.58731050602262
"460" "s03" 76 "Matching Vague" "LtoR" "Large" "Vague" 0.5 "Matching" 0.5 "36:45:54" 0.75 50 "Choose a square with about the same number of dots as the target" "Expected" 4246 8.3537326422632
"461" "s03" 77 "Comparison Crisp" "RtoL" "Large" "Crisp" -0.5 "Comparison" -0.5 "06:15:24" -0.75 10 "Choose a square with more dots than the target" "Expected" 3386 8.12740456269308
"462" "s03" 78 "Matching Crisp" "RtoL" "Large" "Crisp" -0.5 "Matching" 0.5 "16:25:34" -0.25 34 "Choose a square with the same number of dots as the target" "Near" 2093 7.646353722446
"463" "s03" 79 "Comparison Crisp" "LtoR" "Small" "Crisp" -0.5 "Comparison" -0.5 "26:35:44" 0.25 40 "Choose a square with fewer dots than the target" "Expected" 1453 7.28138566357028
"464" "s03" 80 "Comparison Crisp" "RtoL" "Large" "Crisp" -0.5 "Comparison" -0.5 "36:45:54" 0.75 40 "Choose a square with more dots than the target" "Expected" 1691 7.43307534889858
"465" "s03" 81 "Matching Vague" "LtoR" "Large" "Vague" 0.5 "Matching" 0.5 "06:15:24" -0.75 20 "Choose a square with about the same number of dots as the target" "Expected" 3372 8.12326131912175
"466" "s03" 82 "Comparison Crisp" "LtoR" "Small" "Crisp" -0.5 "Comparison" -0.5 "16:25:34" -0.25 30 "Choose a square with fewer dots than the target" "Expected" 2202 7.69712131728263
"467" "s03" 83 "Matching Vague" "LtoR" "Large" "Vague" 0.5 "Matching" 0.5 "26:35:44" 0.25 40 "Choose a square with about the same number of dots as the target" "Near" 7426 8.91274263473703
"468" "s03" 84 "Comparison Vague" "LtoR" "Small" "Vague" 0.5 "Comparison" -0.5 "36:45:54" 0.75 50 "Choose a square with far fewer dots than the target" "Expected" 1645 7.40549566319947
"469" "s03" 85 "Comparison Crisp" "LtoR" "Large" "Crisp" -0.5 "Comparison" -0.5 "06:15:24" -0.75 10 "Choose a square with more dots than the target" "Near" 3197 8.06996814905984
"470" "s03" 86 "Matching Crisp" "RtoL" "Small" "Crisp" -0.5 "Matching" 0.5 "16:25:34" -0.25 16 "Choose a square with the same number of dots as the target" "Far" 6209 8.73375513136489
"471" "s03" 87 "Comparison Vague" "LtoR" "Large" "Vague" 0.5 "Comparison" -0.5 "26:35:44" 0.25 30 "Choose a square with far more dots than the target" "Expected" 1184 7.07665381544395
"472" "s03" 88 "Matching Crisp" "LtoR" "Large" "Crisp" -0.5 "Matching" 0.5 "36:45:54" 0.75 54 "Choose a square with the same number of dots as the target" "Expected" 8248 9.0177260256968
"473" "s03" 89 "Comparison Vague" "LtoR" "Small" "Vague" 0.5 "Comparison" -0.5 "06:15:24" -0.75 20 "Choose a square with far fewer dots than the target" "Expected" 1090 6.99393297522319
"474" "s03" 90 "Matching Vague" "LtoR" "Small" "Vague" 0.5 "Matching" 0.5 "16:25:34" -0.25 20 "Choose a square with about the same number of dots as the target" "Expected" 1584 7.36770857237437
"475" "s03" 91 "Comparison Vague" "RtoL" "Large" "Vague" 0.5 "Comparison" -0.5 "26:35:44" 0.25 30 "Choose a square with far more dots than the target" "Expected" 2134 7.6657534318617
"476" "s03" 92 "Comparison Vague" "LtoR" "Large" "Vague" 0.5 "Comparison" -0.5 "36:45:54" 0.75 40 "Choose a square with far more dots than the target" "Expected" 1493 7.30854279753919
"477" "s03" 93 "Matching Crisp" "LtoR" "Large" "Crisp" -0.5 "Matching" 0.5 "06:15:24" -0.75 24 "Choose a square with the same number of dots as the target" "Expected" 1946 7.57353126274595
"478" "s03" 94 "Matching Vague" "LtoR" "Large" "Vague" 0.5 "Matching" 0.5 "16:25:34" -0.25 30 "Choose a square with about the same number of dots as the target" "Near" 1856 7.52617891334615
"479" "s03" 95 "Comparison Crisp" "RtoL" "Small" "Crisp" -0.5 "Comparison" -0.5 "26:35:44" 0.25 40 "Choose a square with fewer dots than the target" "Expected" 4718 8.45914025996762
"480" "s03" 96 "Comparison Crisp" "LtoR" "Small" "Crisp" -0.5 "Comparison" -0.5 "36:45:54" 0.75 50 "Choose a square with fewer dots than the target" "Expected" 3818 8.24748200428569
"481" "s03" 97 "Comparison Vague" "RtoL" "Small" "Vague" 0.5 "Comparison" -0.5 "06:15:24" -0.75 20 "Choose a square with far fewer dots than the target" "Expected" 1042 6.94889722231331
"482" "s03" 98 "Comparison Crisp" "RtoL" "Large" "Crisp" -0.5 "Comparison" -0.5 "16:25:34" -0.25 20 "Choose a square with more dots than the target" "Expected" 2078 7.63916117165917
"483" "s03" 99 "Matching Vague" "LtoR" "Small" "Vague" 0.5 "Matching" 0.5 "26:35:44" 0.25 30 "Choose a square with about the same number of dots as the target" "Near" 4406 8.39072252736229
"484" "s03" 100 "Matching Crisp" "RtoL" "Large" "Crisp" -0.5 "Matching" 0.5 "36:45:54" 0.75 54 "Choose a square with the same number of dots as the target" "Near" 4922 8.501470230951
"485" "s03" 101 "Matching Vague" "RtoL" "Small" "Vague" 0.5 "Matching" 0.5 "06:15:24" -0.75 10 "Choose a square with about the same number of dots as the target" "Expected" 7145 8.87416809036397
"486" "s03" 102 "Comparison Vague" "LtoR" "Small" "Vague" 0.5 "Comparison" -0.5 "16:25:34" -0.25 30 "Choose a square with far fewer dots than the target" "Expected" 1907 7.55328660560042
"487" "s03" 103 "Comparison Vague" "RtoL" "Small" "Vague" 0.5 "Comparison" -0.5 "26:35:44" 0.25 40 "Choose a square with far fewer dots than the target" "Expected" 2382 7.77569574991525
"488" "s03" 104 "Comparison Vague" "RtoL" "Large" "Vague" 0.5 "Comparison" -0.5 "36:45:54" 0.75 40 "Choose a square with far more dots than the target" "Expected" 1737 7.4599147662411
"489" "s03" 105 "Comparison Vague" "LtoR" "Large" "Vague" 0.5 "Comparison" -0.5 "06:15:24" -0.75 10 "Choose a square with far more dots than the target" "Expected" 972 6.87935580446044
"490" "s03" 106 "Comparison Crisp" "LtoR" "Large" "Crisp" -0.5 "Comparison" -0.5 "16:25:34" -0.25 20 "Choose a square with more dots than the target" "Near" 3130 8.0487882835342
"491" "s03" 107 "Matching Vague" "RtoL" "Large" "Vague" 0.5 "Matching" 0.5 "26:35:44" 0.25 40 "Choose a square with about the same number of dots as the target" "Near" 4173 8.33639048059155
"492" "s03" 108 "Comparison Vague" "RtoL" "Small" "Vague" 0.5 "Comparison" -0.5 "36:45:54" 0.75 50 "Choose a square with far fewer dots than the target" "Expected" 2795 7.9355873855892
"493" "s03" 109 "Matching Crisp" "RtoL" "Small" "Crisp" -0.5 "Matching" 0.5 "06:15:24" -0.75 6 "Choose a square with the same number of dots as the target" "Expected" 2143 7.66996199547358
"494" "s03" 110 "Matching Vague" "RtoL" "Large" "Vague" 0.5 "Matching" 0.5 "16:25:34" -0.25 30 "Choose a square with about the same number of dots as the target" "Far" 2199 7.69575799055476
"495" "s03" 111 "Matching Crisp" "LtoR" "Small" "Crisp" -0.5 "Matching" 0.5 "26:35:44" 0.25 26 "Choose a square with the same number of dots as the target" "Near" 1523 7.32843735289516
"496" "s03" 112 "Matching Vague" "LtoR" "Small" "Vague" 0.5 "Matching" 0.5 "36:45:54" 0.75 40 "Choose a square with about the same number of dots as the target" "Near" 2514 7.82963038915019
"497" "s03" 113 "Matching Crisp" "RtoL" "Large" "Crisp" -0.5 "Matching" 0.5 "06:15:24" -0.75 24 "Choose a square with the same number of dots as the target" "Expected" 2417 7.79028238070348
"498" "s03" 114 "Comparison Vague" "LtoR" "Large" "Vague" 0.5 "Comparison" -0.5 "16:25:34" -0.25 20 "Choose a square with far more dots than the target" "Expected" 1053 6.95939851213398
"499" "s03" 115 "Matching Crisp" "RtoL" "Large" "Crisp" -0.5 "Matching" 0.5 "26:35:44" 0.25 44 "Choose a square with the same number of dots as the target" "Near" 2337 7.75662333453886
"500" "s03" 116 "Matching Crisp" "LtoR" "Small" "Crisp" -0.5 "Matching" 0.5 "36:45:54" 0.75 36 "Choose a square with the same number of dots as the target" "Expected" 1647 7.40671073017764
"501" "s03" 117 "Matching Vague" "RtoL" "Large" "Vague" 0.5 "Matching" 0.5 "06:15:24" -0.75 20 "Choose a square with about the same number of dots as the target" "Near" 1166 7.06133436691044
"502" "s03" 118 "Comparison Vague" "RtoL" "Small" "Vague" 0.5 "Comparison" -0.5 "16:25:34" -0.25 30 "Choose a square with far fewer dots than the target" "Expected" 1828 7.5109777520141
"503" "s03" 119 "Matching Crisp" "LtoR" "Large" "Crisp" -0.5 "Matching" 0.5 "26:35:44" 0.25 44 "Choose a square with the same number of dots as the target" "Expected" 1866 7.53155238140729
"504" "s03" 120 "Comparison Crisp" "RtoL" "Small" "Crisp" -0.5 "Comparison" -0.5 "36:45:54" 0.75 50 "Choose a square with fewer dots than the target" "Expected" 2081 7.64060382639363
"505" "s03" 121 "Matching Crisp" "LtoR" "Small" "Crisp" -0.5 "Matching" 0.5 "06:15:24" -0.75 6 "Choose a square with the same number of dots as the target" "Expected" 2269 7.72709448477984
"506" "s03" 122 "Matching Crisp" "LtoR" "Small" "Crisp" -0.5 "Matching" 0.5 "16:25:34" -0.25 16 "Choose a square with the same number of dots as the target" "Near" 2250 7.71868549519847
"507" "s03" 123 "Matching Vague" "RtoL" "Small" "Vague" 0.5 "Matching" 0.5 "26:35:44" 0.25 30 "Choose a square with about the same number of dots as the target" "Near" 5401 8.59433940059289
"508" "s03" 124 "Matching Crisp" "RtoL" "Small" "Crisp" -0.5 "Matching" 0.5 "36:45:54" 0.75 36 "Choose a square with the same number of dots as the target" "Expected" 2561 7.84815308619953
"509" "s03" 125 "Matching Vague" "LtoR" "Small" "Vague" 0.5 "Matching" 0.5 "06:15:24" -0.75 10 "Choose a square with about the same number of dots as the target" "Near" 2126 7.66199755890189
"510" "s03" 126 "Matching Crisp" "LtoR" "Large" "Crisp" -0.5 "Matching" 0.5 "16:25:34" -0.25 34 "Choose a square with the same number of dots as the target" "Near" 4322 8.37147353706683
"511" "s03" 127 "Comparison Crisp" "LtoR" "Large" "Crisp" -0.5 "Comparison" -0.5 "26:35:44" 0.25 30 "Choose a square with more dots than the target" "Expected" 1841 7.51806418123308
"512" "s03" 128 "Matching Vague" "RtoL" "Small" "Vague" 0.5 "Matching" 0.5 "36:45:54" 0.75 40 "Choose a square with about the same number of dots as the target" "Far" 2463 7.80913539812054
"513" "s03" 129 "Matching Vague" "LtoR" "Large" "Vague" 0.5 "Matching" 0.5 "06:15:24" -0.75 20 "Choose a square with about the same number of dots as the target" "Near" 1826 7.50988306115491
"514" "s03" 130 "Comparison Crisp" "RtoL" "Large" "Crisp" -0.5 "Comparison" -0.5 "16:25:34" -0.25 20 "Choose a square with more dots than the target" "Expected" 1058 6.96413561241824
"515" "s03" 131 "Comparison Crisp" "RtoL" "Small" "Crisp" -0.5 "Comparison" -0.5 "26:35:44" 0.25 40 "Choose a square with fewer dots than the target" "Expected" 1444 7.27517231945277
"516" "s03" 132 "Matching Crisp" "LtoR" "Large" "Crisp" -0.5 "Matching" 0.5 "36:45:54" 0.75 54 "Choose a square with the same number of dots as the target" "Expected" 1920 7.56008046502183
"517" "s03" 133 "Comparison Vague" "LtoR" "Large" "Vague" 0.5 "Comparison" -0.5 "06:15:24" -0.75 10 "Choose a square with far more dots than the target" "Expected" 2344 7.7596141506969
"518" "s03" 134 "Matching Crisp" "RtoL" "Large" "Crisp" -0.5 "Matching" 0.5 "16:25:34" -0.25 34 "Choose a square with the same number of dots as the target" "Near" 1776 7.48211892355212
"519" "s03" 135 "Comparison Crisp" "LtoR" "Small" "Crisp" -0.5 "Comparison" -0.5 "26:35:44" 0.25 40 "Choose a square with fewer dots than the target" "Expected" 2142 7.66949525100769
"520" "s03" 136 "Comparison Vague" "RtoL" "Small" "Vague" 0.5 "Comparison" -0.5 "36:45:54" 0.75 50 "Choose a square with far fewer dots than the target" "Expected" 1576 7.36264527041782
"521" "s03" 137 "Comparison Crisp" "RtoL" "Small" "Crisp" -0.5 "Comparison" -0.5 "06:15:24" -0.75 20 "Choose a square with fewer dots than the target" "Expected" 3659 8.20494516501921
"522" "s03" 138 "Matching Crisp" "RtoL" "Small" "Crisp" -0.5 "Matching" 0.5 "16:25:34" -0.25 16 "Choose a square with the same number of dots as the target" "Expected" 1591 7.37211802833779
"523" "s03" 139 "Matching Crisp" "LtoR" "Small" "Crisp" -0.5 "Matching" 0.5 "26:35:44" 0.25 26 "Choose a square with the same number of dots as the target" "Expected" 2844 7.95296679092313
"524" "s03" 140 "Matching Vague" "LtoR" "Small" "Vague" 0.5 "Matching" 0.5 "36:45:54" 0.75 40 "Choose a square with about the same number of dots as the target" "Expected" 2028 7.61480536471107
"525" "s03" 141 "Comparison Crisp" "LtoR" "Small" "Crisp" -0.5 "Comparison" -0.5 "06:15:24" -0.75 20 "Choose a square with fewer dots than the target" "Expected" 1013 6.92067150424868
"526" "s03" 142 "Comparison Crisp" "LtoR" "Small" "Crisp" -0.5 "Comparison" -0.5 "16:25:34" -0.25 30 "Choose a square with fewer dots than the target" "Expected" 1322 7.18690102041163
"527" "s03" 143 "Matching Vague" "RtoL" "Large" "Vague" 0.5 "Matching" 0.5 "26:35:44" 0.25 40 "Choose a square with about the same number of dots as the target" "Near" 2967 7.99530662029082
"528" "s03" 144 "Matching Crisp" "LtoR" "Small" "Crisp" -0.5 "Matching" 0.5 "36:45:54" 0.75 36 "Choose a square with the same number of dots as the target" "Expected" 1425 7.26192709270275
"529" "s03" 145 "Matching Crisp" "RtoL" "Small" "Crisp" -0.5 "Matching" 0.5 "06:15:24" -0.75 6 "Choose a square with the same number of dots as the target" "Expected" 2006 7.60389796852188
"530" "s03" 146 "Comparison Vague" "LtoR" "Small" "Vague" 0.5 "Comparison" -0.5 "16:25:34" -0.25 30 "Choose a square with far fewer dots than the target" "Expected" 1090 6.99393297522319
"531" "s03" 147 "Matching Crisp" "RtoL" "Large" "Crisp" -0.5 "Matching" 0.5 "26:35:44" 0.25 44 "Choose a square with the same number of dots as the target" "Near" 1812 7.50218648660292
"532" "s03" 148 "Comparison Crisp" "LtoR" "Large" "Crisp" -0.5 "Comparison" -0.5 "36:45:54" 0.75 40 "Choose a square with more dots than the target" "Expected" 1928 7.56423847517049
"533" "s03" 149 "Comparison Vague" "LtoR" "Small" "Vague" 0.5 "Comparison" -0.5 "06:15:24" -0.75 20 "Choose a square with far fewer dots than the target" "Expected" 1346 7.20489251020467
"534" "s03" 150 "Matching Vague" "LtoR" "Small" "Vague" 0.5 "Matching" 0.5 "16:25:34" -0.25 20 "Choose a square with about the same number of dots as the target" "Expected" 3183 8.06557942728209
"535" "s03" 151 "Matching Crisp" "RtoL" "Small" "Crisp" -0.5 "Matching" 0.5 "26:35:44" 0.25 26 "Choose a square with the same number of dots as the target" "Expected" 2109 7.65396918047877
"536" "s03" 152 "Comparison Crisp" "RtoL" "Large" "Crisp" -0.5 "Comparison" -0.5 "36:45:54" 0.75 40 "Choose a square with more dots than the target" "Expected" 1947 7.5740450053722
"537" "s03" 153 "Matching Crisp" "LtoR" "Small" "Crisp" -0.5 "Matching" 0.5 "06:15:24" -0.75 6 "Choose a square with the same number of dots as the target" "Expected" 1510 7.31986492980897
