Subject	Trial	Item	c_Itm	discriminability	Instruction	nchar_instr	Vagueness	Number	Order	Quantity	c_Vag	c_Num	c_Ord	c_Qty	NaType	response_category	isBorderline	RT	RT_log
s01	1	06:15:24	-0.75	0.4875	Choose the square with 6 dots	29	Crisp	Numeric	RtoL	Small	-0.5	-0.5	0.5	-0.5	valid_trial	expected	FALSE	1517	7.32448997934853
s01	2	16:25:34	-0.25	0.3123529	Choose a square with about 30 dots	34	Vague	Numeric	LtoR	Large	0.5	-0.5	-0.5	0.5	valid_trial	borderline	TRUE	1920	7.56008046502183
s01	3	26:35:44	0.25	0.2308442	Choose the square with the fewest dots	38	Crisp	Verbal	LtoR	Small	-0.5	0.5	-0.5	-0.5	valid_trial	expected	FALSE	2346	7.76046702921342
s01	4	36:45:54	0.75	0.1833333	Choose a square with about 50 dots	34	Vague	Numeric	RtoL	Large	0.5	-0.5	0.5	0.5	valid_trial	borderline	TRUE	1773	7.48042830607421
s01	5	06:15:24	-0.75	0.4875	Choose a square with about 10 dots	34	Vague	Numeric	RtoL	Small	0.5	-0.5	0.5	-0.5	valid_trial	expected	FALSE	2556	7.84619881549743
s01	6	16:25:34	-0.25	0.3123529	Choose a square with many dots	30	Vague	Verbal	LtoR	Large	0.5	0.5	-0.5	0.5	valid_trial	expected	FALSE	2043	7.62217459481762
s01	7	26:35:44	0.25	0.2308442	Choose a square with few dots	29	Vague	Verbal	RtoL	Small	0.5	0.5	0.5	-0.5	valid_trial	expected	FALSE	2384	7.77653502818524
s01	8	36:45:54	0.75	0.1833333	Choose the square with the fewest dots	38	Crisp	Verbal	RtoL	Small	-0.5	0.5	0.5	-0.5	valid_trial	expected	FALSE	3078	8.03203531439882
s01	9	06:15:24	-0.75	0.4875	Choose the square with the most dots	36	Crisp	Verbal	LtoR	Large	-0.5	0.5	-0.5	0.5	valid_trial	expected	FALSE	1760	7.4730690880322
s01	10	16:25:34	-0.25	0.3123529	Choose the square with 34 dots	30	Crisp	Numeric	RtoL	Large	-0.5	-0.5	0.5	0.5	valid_trial	borderline	TRUE	2218	7.70436116791031
s01	11	26:35:44	0.25	0.2308442	Choose a square with about 30 dots	34	Vague	Numeric	RtoL	Small	0.5	-0.5	0.5	-0.5	valid_trial	expected	FALSE	7986	8.98544528762317
s01	12	36:45:54	0.75	0.1833333	Choose a square with many dots	30	Vague	Verbal	RtoL	Large	0.5	0.5	0.5	0.5	valid_trial	expected	FALSE	1262	7.14045304310116
s01	13	06:15:24	-0.75	0.4875	Choose a square with about 20 dots	34	Vague	Numeric	LtoR	Large	0.5	-0.5	-0.5	0.5	valid_trial	borderline	TRUE	1390	7.23705902612474
s01	14	16:25:34	-0.25	0.3123529	Choose the square with the fewest dots	38	Crisp	Verbal	RtoL	Small	-0.5	0.5	0.5	-0.5	valid_trial	expected	FALSE	2067	7.63385355968177
s01	15	26:35:44	0.25	0.2308442	Choose the square with 44 dots	30	Crisp	Numeric	LtoR	Large	-0.5	-0.5	-0.5	0.5	valid_trial	expected	FALSE	3582	8.18367658262066
s01	16	36:45:54	0.75	0.1833333	Choose the square with 54 dots	30	Crisp	Numeric	LtoR	Large	-0.5	-0.5	-0.5	0.5	valid_trial	borderline	TRUE	1982	7.59186171488993
s01	17	06:15:24	-0.75	0.4875	Choose a square with few dots	29	Vague	Verbal	LtoR	Small	0.5	0.5	-0.5	-0.5	valid_trial	expected	FALSE	1036	6.94312242281943
s01	18	16:25:34	-0.25	0.3123529	Choose a square with few dots	29	Vague	Verbal	RtoL	Small	0.5	0.5	0.5	-0.5	valid_trial	expected	FALSE	1357	7.21303165983487
s01	19	26:35:44	0.25	0.2308442	Choose a square with about 30 dots	34	Vague	Numeric	LtoR	Small	0.5	-0.5	-0.5	-0.5	valid_trial	borderline	TRUE	2121	7.65964295456468
s01	20	36:45:54	0.75	0.1833333	Choose a square with about 40 dots	34	Vague	Numeric	RtoL	Small	0.5	-0.5	0.5	-0.5	valid_trial	borderline	TRUE	2104	7.6515955738576
s01	21	06:15:24	-0.75	0.4875	Choose the square with the fewest dots	38	Crisp	Verbal	RtoL	Small	-0.5	0.5	0.5	-0.5	valid_trial	expected	FALSE	782	6.66185474054531
s01	22	16:25:34	-0.25	0.3123529	Choose a square with about 20 dots	34	Vague	Numeric	LtoR	Small	0.5	-0.5	-0.5	-0.5	valid_trial	borderline	TRUE	1743	7.46336304552002
s01	23	26:35:44	0.25	0.2308442	Choose the square with the most dots	36	Crisp	Verbal	LtoR	Large	-0.5	0.5	-0.5	0.5	valid_trial	expected	FALSE	997	6.90475076996184
s01	24	36:45:54	0.75	0.1833333	Choose a square with few dots	29	Vague	Verbal	LtoR	Small	0.5	0.5	-0.5	-0.5	valid_trial	expected	FALSE	2274	7.72929567431048
s01	25	06:15:24	-0.75	0.4875	Choose the square with 6 dots	29	Crisp	Numeric	LtoR	Small	-0.5	-0.5	-0.5	-0.5	valid_trial	expected	FALSE	830	6.72142570079064
s01	26	16:25:34	-0.25	0.3123529	Choose a square with about 20 dots	34	Vague	Numeric	RtoL	Small	0.5	-0.5	0.5	-0.5	valid_trial	borderline	TRUE	1799	7.49498623395053
s01	27	26:35:44	0.25	0.2308442	Choose the square with the most dots	36	Crisp	Verbal	RtoL	Large	-0.5	0.5	0.5	0.5	valid_trial	expected	FALSE	2057	7.62900388965296
s01	28	36:45:54	0.75	0.1833333	Choose the square with 36 dots	30	Crisp	Numeric	LtoR	Small	-0.5	-0.5	-0.5	-0.5	valid_trial	expected	FALSE	1350	7.20785987143248
s01	29	06:15:24	-0.75	0.4875	Choose the square with 24 dots	30	Crisp	Numeric	LtoR	Large	-0.5	-0.5	-0.5	0.5	valid_trial	expected	FALSE	3042	8.02027047281924
s01	30	16:25:34	-0.25	0.3123529	Choose the square with the most dots	36	Crisp	Verbal	LtoR	Large	-0.5	0.5	-0.5	0.5	valid_trial	expected	FALSE	1240	7.12286665859908
s01	31	26:35:44	0.25	0.2308442	Choose the square with 26 dots	30	Crisp	Numeric	LtoR	Small	-0.5	-0.5	-0.5	-0.5	valid_trial	borderline	TRUE	2356	7.76472054477148
s01	32	36:45:54	0.75	0.1833333	Choose a square with few dots	29	Vague	Verbal	RtoL	Small	0.5	0.5	0.5	-0.5	valid_trial	expected	FALSE	3740	8.22684089040858
s01	33	06:15:24	-0.75	0.4875	Choose the square with 24 dots	30	Crisp	Numeric	RtoL	Large	-0.5	-0.5	0.5	0.5	valid_trial	expected	FALSE	1689	7.4318919168078
s01	34	16:25:34	-0.25	0.3123529	Choose the square with 34 dots	30	Crisp	Numeric	LtoR	Large	-0.5	-0.5	-0.5	0.5	valid_trial	expected	FALSE	4676	8.45019832259196
s01	35	26:35:44	0.25	0.2308442	Choose the square with 44 dots	30	Crisp	Numeric	RtoL	Large	-0.5	-0.5	0.5	0.5	valid_trial	borderline	TRUE	2900	7.97246601597457
s01	36	36:45:54	0.75	0.1833333	Choose a square with many dots	30	Vague	Verbal	LtoR	Large	0.5	0.5	-0.5	0.5	valid_trial	expected	FALSE	844	6.73815249459596
s01	37	06:15:24	-0.75	0.4875	Choose a square with few dots	29	Vague	Verbal	RtoL	Small	0.5	0.5	0.5	-0.5	valid_trial	extreme	FALSE	1007	6.91473089271856
s01	38	16:25:34	-0.25	0.3123529	Choose the square with the fewest dots	38	Crisp	Verbal	LtoR	Small	-0.5	0.5	-0.5	-0.5	valid_trial	expected	FALSE	1085	6.98933526597456
s01	39	26:35:44	0.25	0.2308442	Choose a square with about 40 dots	34	Vague	Numeric	RtoL	Large	0.5	-0.5	0.5	0.5	valid_trial	expected	FALSE	2229	7.70930833338587
s01	40	36:45:54	0.75	0.1833333	Choose the square with the most dots	36	Crisp	Verbal	RtoL	Large	-0.5	0.5	0.5	0.5	valid_trial	expected	FALSE	2299	7.74022952476318
s01	41	06:15:24	-0.75	0.4875	Choose a square with about 10 dots	34	Vague	Numeric	LtoR	Small	0.5	-0.5	-0.5	-0.5	valid_trial	borderline	TRUE	2873	7.96311205897929
s01	42	16:25:34	-0.25	0.3123529	Choose a square with few dots	29	Vague	Verbal	LtoR	Small	0.5	0.5	-0.5	-0.5	valid_trial	expected	FALSE	2683	7.89469085042562
s01	43	26:35:44	0.25	0.2308442	Choose a square with few dots	29	Vague	Verbal	LtoR	Small	0.5	0.5	-0.5	-0.5	valid_trial	expected	FALSE	1323	7.18765716411496
s01	44	36:45:54	0.75	0.1833333	Choose a square with about 50 dots	34	Vague	Numeric	LtoR	Large	0.5	-0.5	-0.5	0.5	valid_trial	expected	FALSE	2298	7.7397944584087
s01	45	06:15:24	-0.75	0.4875	Choose a square with about 20 dots	34	Vague	Numeric	RtoL	Large	0.5	-0.5	0.5	0.5	valid_trial	expected	FALSE	2259	7.722677516468
s01	46	16:25:34	-0.25	0.3123529	Choose a square with about 30 dots	34	Vague	Numeric	RtoL	Large	0.5	-0.5	0.5	0.5	valid_trial	expected	FALSE	1944	7.57250298502038
s01	47	26:35:44	0.25	0.2308442	Choose the square with the fewest dots	38	Crisp	Verbal	RtoL	Small	-0.5	0.5	0.5	-0.5	valid_trial	expected	FALSE	1916	7.55799495853081
s01	48	36:45:54	0.75	0.1833333	Choose the square with 36 dots	30	Crisp	Numeric	RtoL	Small	-0.5	-0.5	0.5	-0.5	valid_trial	borderline	TRUE	3192	8.0684029585697
s01	49	06:15:24	-0.75	0.4875	Choose the square with the fewest dots	38	Crisp	Verbal	LtoR	Small	-0.5	0.5	-0.5	-0.5	valid_trial	expected	FALSE	945	6.85118492749374
s01	50	16:25:34	-0.25	0.3123529	Choose the square with the most dots	36	Crisp	Verbal	RtoL	Large	-0.5	0.5	0.5	0.5	valid_trial	expected	FALSE	1315	7.18159194461187
s01	51	26:35:44	0.25	0.2308442	Choose a square with many dots	30	Vague	Verbal	LtoR	Large	0.5	0.5	-0.5	0.5	valid_trial	expected	FALSE	3253	8.08733292647335
s01	52	36:45:54	0.75	0.1833333	Choose a square with about 40 dots	34	Vague	Numeric	LtoR	Small	0.5	-0.5	-0.5	-0.5	valid_trial	extreme	FALSE	3155	8.05674377497531
s01	53	06:15:24	-0.75	0.4875	Choose a square with many dots	30	Vague	Verbal	LtoR	Large	0.5	0.5	-0.5	0.5	valid_trial	expected	FALSE	704	6.55677835615804
s01	54	16:25:34	-0.25	0.3123529	Choose the square with 16 dots	30	Crisp	Numeric	RtoL	Small	-0.5	-0.5	0.5	-0.5	valid_trial	borderline	TRUE	1942	7.57147364885127
s01	55	26:35:44	0.25	0.2308442	Choose the square with 26 dots	30	Crisp	Numeric	RtoL	Small	-0.5	-0.5	0.5	-0.5	valid_trial	borderline	TRUE	3566	8.17919979842309
s01	56	36:45:54	0.75	0.1833333	Choose the square with 54 dots	30	Crisp	Numeric	RtoL	Large	-0.5	-0.5	0.5	0.5	valid_trial	expected	FALSE	1754	7.46965417293213
s01	57	06:15:24	-0.75	0.4875	Choose the square with the most dots	36	Crisp	Verbal	RtoL	Large	-0.5	0.5	0.5	0.5	valid_trial	expected	FALSE	933	6.83840520084734
s01	58	16:25:34	-0.25	0.3123529	Choose the square with 16 dots	30	Crisp	Numeric	LtoR	Small	-0.5	-0.5	-0.5	-0.5	valid_trial	expected	FALSE	8155	9.00638651505511
s01	59	26:35:44	0.25	0.2308442	Choose a square with many dots	30	Vague	Verbal	RtoL	Large	0.5	0.5	0.5	0.5	valid_trial	expected	FALSE	2022	7.61184239958042
s01	60	36:45:54	0.75	0.1833333	Choose the square with the most dots	36	Crisp	Verbal	LtoR	Large	-0.5	0.5	-0.5	0.5	valid_trial	expected	FALSE	1029	6.93634273583405
s01	61	06:15:24	-0.75	0.4875	Choose a square with many dots	30	Vague	Verbal	RtoL	Large	0.5	0.5	0.5	0.5	valid_trial	expected	FALSE	1046	6.95272864462487
s01	62	16:25:34	-0.25	0.3123529	Choose a square with many dots	30	Vague	Verbal	RtoL	Large	0.5	0.5	0.5	0.5	valid_trial	expected	FALSE	1203	7.09257371597468
s01	63	26:35:44	0.25	0.2308442	Choose a square with about 40 dots	34	Vague	Numeric	LtoR	Large	0.5	-0.5	-0.5	0.5	valid_trial	expected	FALSE	1313	7.1800698743028
s01	64	36:45:54	0.75	0.1833333	Choose the square with the fewest dots	38	Crisp	Verbal	LtoR	Small	-0.5	0.5	-0.5	-0.5	valid_trial	expected	FALSE	1019	6.92657703322272
s01	65	06:15:24	-0.75	0.4875	Choose a square with about 10 dots	34	Vague	Numeric	RtoL	Small	0.5	-0.5	0.5	-0.5	valid_trial	borderline	TRUE	1452	7.28069719538474
s01	66	16:25:34	-0.25	0.3123529	Choose a square with about 30 dots	34	Vague	Numeric	RtoL	Large	0.5	-0.5	0.5	0.5	valid_trial	expected	FALSE	1544	7.34213173058472
s01	67	26:35:44	0.25	0.2308442	Choose a square with many dots	30	Vague	Verbal	LtoR	Large	0.5	0.5	-0.5	0.5	valid_trial	expected	FALSE	874	6.77308037565554
s01	68	36:45:54	0.75	0.1833333	Choose a square with about 40 dots	34	Vague	Numeric	RtoL	Small	0.5	-0.5	0.5	-0.5	valid_trial	extreme	FALSE	3235	8.081784206935
s01	69	06:15:24	-0.75	0.4875	Choose a square with about 20 dots	34	Vague	Numeric	LtoR	Large	0.5	-0.5	-0.5	0.5	valid_trial	borderline	TRUE	2743	7.9168074909376
s01	70	16:25:34	-0.25	0.3123529	Choose the square with 34 dots	30	Crisp	Numeric	RtoL	Large	-0.5	-0.5	0.5	0.5	valid_trial	expected	FALSE	1494	7.30921236569276
s01	71	26:35:44	0.25	0.2308442	Choose the square with the most dots	36	Crisp	Verbal	LtoR	Large	-0.5	0.5	-0.5	0.5	valid_trial	expected	FALSE	834	6.72623340235875
s01	72	36:45:54	0.75	0.1833333	Choose a square with many dots	30	Vague	Verbal	LtoR	Large	0.5	0.5	-0.5	0.5	valid_trial	expected	FALSE	1349	7.20711885620776
s01	73	06:15:24	-0.75	0.4875	Choose a square with few dots	29	Vague	Verbal	RtoL	Small	0.5	0.5	0.5	-0.5	valid_trial	extreme	FALSE	717	6.57507584059962
s01	74	16:25:34	-0.25	0.3123529	Choose a square with many dots	30	Vague	Verbal	LtoR	Large	0.5	0.5	-0.5	0.5	valid_trial	expected	FALSE	1648	7.40731771046942
s01	75	26:35:44	0.25	0.2308442	Choose a square with about 30 dots	34	Vague	Numeric	RtoL	Small	0.5	-0.5	0.5	-0.5	valid_trial	extreme	FALSE	940	6.84587987526405
s01	76	36:45:54	0.75	0.1833333	Choose the square with 36 dots	30	Crisp	Numeric	LtoR	Small	-0.5	-0.5	-0.5	-0.5	valid_trial	extreme	FALSE	2787	7.93272102748195
s01	77	06:15:24	-0.75	0.4875	Choose the square with the most dots	36	Crisp	Verbal	RtoL	Large	-0.5	0.5	0.5	0.5	valid_trial	expected	FALSE	880	6.77992190747225
s01	78	16:25:34	-0.25	0.3123529	Choose the square with 16 dots	30	Crisp	Numeric	RtoL	Small	-0.5	-0.5	0.5	-0.5	valid_trial	borderline	TRUE	1795	7.49276030092238
s01	79	26:35:44	0.25	0.2308442	Choose the square with 26 dots	30	Crisp	Numeric	LtoR	Small	-0.5	-0.5	-0.5	-0.5	valid_trial	borderline	TRUE	1844	7.51969240411654
s01	80	36:45:54	0.75	0.1833333	Choose a square with few dots	29	Vague	Verbal	LtoR	Small	0.5	0.5	-0.5	-0.5	valid_trial	expected	FALSE	1548	7.34471905414967
s01	81	06:15:24	-0.75	0.4875	Choose the square with 24 dots	30	Crisp	Numeric	LtoR	Large	-0.5	-0.5	-0.5	0.5	valid_trial	expected	FALSE	1902	7.55066124310534
s01	82	16:25:34	-0.25	0.3123529	Choose the square with the fewest dots	38	Crisp	Verbal	LtoR	Small	-0.5	0.5	-0.5	-0.5	valid_trial	expected	FALSE	919	6.82328612235569
s01	83	26:35:44	0.25	0.2308442	Choose the square with the most dots	36	Crisp	Verbal	RtoL	Large	-0.5	0.5	0.5	0.5	valid_trial	expected	FALSE	798	6.68210859744981
s01	84	36:45:54	0.75	0.1833333	Choose a square with few dots	29	Vague	Verbal	RtoL	Small	0.5	0.5	0.5	-0.5	valid_trial	expected	FALSE	2193	7.69302574841789
s01	85	06:15:24	-0.75	0.4875	Choose the square with 6 dots	29	Crisp	Numeric	RtoL	Small	-0.5	-0.5	0.5	-0.5	valid_trial	expected	FALSE	1293	7.16472037877186
s01	86	16:25:34	-0.25	0.3123529	Choose a square with few dots	29	Vague	Verbal	RtoL	Small	0.5	0.5	0.5	-0.5	valid_trial	expected	FALSE	1420	7.25841215059531
s01	87	26:35:44	0.25	0.2308442	Choose a square with about 30 dots	34	Vague	Numeric	LtoR	Small	0.5	-0.5	-0.5	-0.5	valid_trial	borderline	TRUE	2219	7.70481192293259
s01	88	36:45:54	0.75	0.1833333	Choose the square with 54 dots	30	Crisp	Numeric	RtoL	Large	-0.5	-0.5	0.5	0.5	valid_trial	expected	FALSE	913	6.81673588059497
s01	89	06:15:24	-0.75	0.4875	Choose the square with the most dots	36	Crisp	Verbal	LtoR	Large	-0.5	0.5	-0.5	0.5	valid_trial	expected	FALSE	825	6.71538338633468
s01	90	16:25:34	-0.25	0.3123529	Choose a square with many dots	30	Vague	Verbal	RtoL	Large	0.5	0.5	0.5	0.5	valid_trial	expected	FALSE	2325	7.75147531802146
s01	91	26:35:44	0.25	0.2308442	Choose a square with many dots	30	Vague	Verbal	RtoL	Large	0.5	0.5	0.5	0.5	valid_trial	expected	FALSE	1486	7.3038432252777
s01	92	36:45:54	0.75	0.1833333	Choose the square with the most dots	36	Crisp	Verbal	RtoL	Large	-0.5	0.5	0.5	0.5	valid_trial	expected	FALSE	1195	7.08590146436561
s01	93	06:15:24	-0.75	0.4875	Choose a square with many dots	30	Vague	Verbal	RtoL	Large	0.5	0.5	0.5	0.5	valid_trial	expected	FALSE	1483	7.30182234213793
s01	94	16:25:34	-0.25	0.3123529	Choose a square with about 20 dots	34	Vague	Numeric	LtoR	Small	0.5	-0.5	-0.5	-0.5	valid_trial	borderline	TRUE	2112	7.65539064482615
s01	95	26:35:44	0.25	0.2308442	Choose the square with 26 dots	30	Crisp	Numeric	RtoL	Small	-0.5	-0.5	0.5	-0.5	valid_trial	borderline	TRUE	3120	8.04558828080353
s01	96	36:45:54	0.75	0.1833333	Choose the square with 36 dots	30	Crisp	Numeric	RtoL	Small	-0.5	-0.5	0.5	-0.5	valid_trial	extreme	FALSE	4594	8.43250638324904
s01	97	06:15:24	-0.75	0.4875	Choose a square with many dots	30	Vague	Verbal	LtoR	Large	0.5	0.5	-0.5	0.5	valid_trial	expected	FALSE	717	6.57507584059962
s01	98	16:25:34	-0.25	0.3123529	Choose a square with few dots	29	Vague	Verbal	LtoR	Small	0.5	0.5	-0.5	-0.5	valid_trial	expected	FALSE	888	6.78897174299217
s01	99	26:35:44	0.25	0.2308442	Choose a square with about 40 dots	34	Vague	Numeric	RtoL	Large	0.5	-0.5	0.5	0.5	valid_trial	expected	FALSE	1204	7.09340462586877
s01	100	36:45:54	0.75	0.1833333	Choose the square with the fewest dots	38	Crisp	Verbal	LtoR	Small	-0.5	0.5	-0.5	-0.5	valid_trial	expected	FALSE	3062	8.02682357621763
s01	101	06:15:24	-0.75	0.4875	Choose the square with the fewest dots	38	Crisp	Verbal	RtoL	Small	-0.5	0.5	0.5	-0.5	valid_trial	expected	FALSE	1091	6.99484998583307
s01	102	16:25:34	-0.25	0.3123529	Choose a square with about 30 dots	34	Vague	Numeric	LtoR	Large	0.5	-0.5	-0.5	0.5	valid_trial	expected	FALSE	1631	7.39694860262101
s01	103	26:35:44	0.25	0.2308442	Choose the square with the fewest dots	38	Crisp	Verbal	LtoR	Small	-0.5	0.5	-0.5	-0.5	valid_trial	expected	FALSE	1593	7.37337430991005
s01	104	36:45:54	0.75	0.1833333	Choose the square with the fewest dots	38	Crisp	Verbal	RtoL	Small	-0.5	0.5	0.5	-0.5	valid_trial	expected	FALSE	1233	7.11720550316434
s01	105	06:15:24	-0.75	0.4875	Choose a square with about 10 dots	34	Vague	Numeric	LtoR	Small	0.5	-0.5	-0.5	-0.5	valid_trial	borderline	TRUE	1081	6.98564181763921
s01	106	16:25:34	-0.25	0.3123529	Choose the square with the most dots	36	Crisp	Verbal	RtoL	Large	-0.5	0.5	0.5	0.5	valid_trial	expected	FALSE	1687	7.43070708254597
s01	107	26:35:44	0.25	0.2308442	Choose a square with few dots	29	Vague	Verbal	LtoR	Small	0.5	0.5	-0.5	-0.5	valid_trial	expected	FALSE	1900	7.54960916515453
s01	108	36:45:54	0.75	0.1833333	Choose a square with about 50 dots	34	Vague	Numeric	LtoR	Large	0.5	-0.5	-0.5	0.5	valid_trial	expected	FALSE	1383	7.23201033166476
s01	109	06:15:24	-0.75	0.4875	Choose a square with few dots	29	Vague	Verbal	LtoR	Small	0.5	0.5	-0.5	-0.5	valid_trial	expected	FALSE	1557	7.350516171834
s01	110	16:25:34	-0.25	0.3123529	Choose the square with 34 dots	30	Crisp	Numeric	LtoR	Large	-0.5	-0.5	-0.5	0.5	valid_trial	expected	FALSE	1104	7.00669522683704
s01	111	26:35:44	0.25	0.2308442	Choose a square with about 40 dots	34	Vague	Numeric	LtoR	Large	0.5	-0.5	-0.5	0.5	valid_trial	expected	FALSE	1116	7.01750614294126
s01	112	36:45:54	0.75	0.1833333	Choose a square with about 40 dots	34	Vague	Numeric	LtoR	Small	0.5	-0.5	-0.5	-0.5	valid_trial	extreme	FALSE	1254	7.13409372119287
s01	113	06:15:24	-0.75	0.4875	Choose the square with 6 dots	29	Crisp	Numeric	LtoR	Small	-0.5	-0.5	-0.5	-0.5	valid_trial	expected	FALSE	1029	6.93634273583405
s01	114	16:25:34	-0.25	0.3123529	Choose the square with the fewest dots	38	Crisp	Verbal	RtoL	Small	-0.5	0.5	0.5	-0.5	valid_trial	expected	FALSE	1459	7.28550654852279
s01	115	26:35:44	0.25	0.2308442	Choose a square with few dots	29	Vague	Verbal	RtoL	Small	0.5	0.5	0.5	-0.5	valid_trial	expected	FALSE	1491	7.30720231476474
s01	116	36:45:54	0.75	0.1833333	Choose the square with the most dots	36	Crisp	Verbal	LtoR	Large	-0.5	0.5	-0.5	0.5	valid_trial	expected	FALSE	1820	7.50659178007084
s01	117	06:15:24	-0.75	0.4875	Choose a square with about 20 dots	34	Vague	Numeric	RtoL	Large	0.5	-0.5	0.5	0.5	valid_trial	expected	FALSE	952	6.85856503479136
s01	118	16:25:34	-0.25	0.3123529	Choose the square with 16 dots	30	Crisp	Numeric	LtoR	Small	-0.5	-0.5	-0.5	-0.5	valid_trial	borderline	TRUE	1303	7.17242457712485
s01	119	26:35:44	0.25	0.2308442	Choose the square with 44 dots	30	Crisp	Numeric	RtoL	Large	-0.5	-0.5	0.5	0.5	valid_trial	expected	FALSE	1659	7.41397029019044
s01	120	36:45:54	0.75	0.1833333	Choose a square with about 50 dots	34	Vague	Numeric	RtoL	Large	0.5	-0.5	0.5	0.5	valid_trial	expected	FALSE	1027	6.93439720992856
s01	121	06:15:24	-0.75	0.4875	Choose the square with 24 dots	30	Crisp	Numeric	RtoL	Large	-0.5	-0.5	0.5	0.5	valid_trial	expected	FALSE	1570	7.35883089834235
s01	122	16:25:34	-0.25	0.3123529	Choose a square with about 20 dots	34	Vague	Numeric	RtoL	Small	0.5	-0.5	0.5	-0.5	valid_trial	borderline	TRUE	1100	7.00306545878646
s01	123	26:35:44	0.25	0.2308442	Choose the square with the fewest dots	38	Crisp	Verbal	RtoL	Small	-0.5	0.5	0.5	-0.5	valid_trial	expected	FALSE	1433	7.26752542782817
s01	124	36:45:54	0.75	0.1833333	Choose a square with many dots	30	Vague	Verbal	RtoL	Large	0.5	0.5	0.5	0.5	valid_trial	expected	FALSE	1005	6.91274282049318
s01	125	06:15:24	-0.75	0.4875	Choose the square with the fewest dots	38	Crisp	Verbal	LtoR	Small	-0.5	0.5	-0.5	-0.5	valid_trial	expected	FALSE	1121	7.02197642307216
s01	126	16:25:34	-0.25	0.3123529	Choose the square with the most dots	36	Crisp	Verbal	LtoR	Large	-0.5	0.5	-0.5	0.5	valid_trial	expected	FALSE	1564	7.35500192110526
s01	127	26:35:44	0.25	0.2308442	Choose the square with 44 dots	30	Crisp	Numeric	LtoR	Large	-0.5	-0.5	-0.5	0.5	valid_trial	expected	FALSE	1016	6.92362862813843
s01	128	36:45:54	0.75	0.1833333	Choose the square with 54 dots	30	Crisp	Numeric	LtoR	Large	-0.5	-0.5	-0.5	0.5	valid_trial	expected	FALSE	2456	7.80628928926703
s01	129	06:15:24	-0.75	0.4875	Choose a square with about 10 dots	34	Vague	Numeric	RtoL	Small	0.5	-0.5	0.5	-0.5	valid_trial	borderline	TRUE	1254	7.13409372119287
s01	130	16:25:34	-0.25	0.3123529	Choose a square with about 30 dots	34	Vague	Numeric	RtoL	Large	0.5	-0.5	0.5	0.5	valid_trial	expected	FALSE	1799	7.49498623395053
s01	131	26:35:44	0.25	0.2308442	Choose the square with the most dots	36	Crisp	Verbal	RtoL	Large	-0.5	0.5	0.5	0.5	valid_trial	expected	FALSE	1286	7.15929190479756
s01	132	36:45:54	0.75	0.1833333	Choose the square with the fewest dots	38	Crisp	Verbal	RtoL	Small	-0.5	0.5	0.5	-0.5	valid_trial	borderline	TRUE	2192	7.69256964806791
s01	133	06:15:24	-0.75	0.4875	Choose the square with the fewest dots	38	Crisp	Verbal	RtoL	Small	-0.5	0.5	0.5	-0.5	valid_trial	expected	FALSE	1095	6.9985096422506
s01	134	16:25:34	-0.25	0.3123529	Choose the square with the most dots	36	Crisp	Verbal	LtoR	Large	-0.5	0.5	-0.5	0.5	valid_trial	expected	FALSE	764	6.63856778916652
s01	135	26:35:44	0.25	0.2308442	Choose a square with about 40 dots	34	Vague	Numeric	RtoL	Large	0.5	-0.5	0.5	0.5	valid_trial	expected	FALSE	1412	7.25276241805319
s01	136	36:45:54	0.75	0.1833333	Choose the square with 36 dots	30	Crisp	Numeric	RtoL	Small	-0.5	-0.5	0.5	-0.5	valid_trial	extreme	FALSE	2820	7.94449216393216
s01	137	06:15:24	-0.75	0.4875	Choose a square with about 20 dots	34	Vague	Numeric	LtoR	Large	0.5	-0.5	-0.5	0.5	valid_trial	expected	FALSE	1617	7.38832785957711
s01	138	16:25:34	-0.25	0.3123529	Choose a square with many dots	30	Vague	Verbal	RtoL	Large	0.5	0.5	0.5	0.5	valid_trial	expected	FALSE	2162	7.67878899819915
s01	139	26:35:44	0.25	0.2308442	Choose the square with 26 dots	30	Crisp	Numeric	RtoL	Small	-0.5	-0.5	0.5	-0.5	valid_trial	extreme	FALSE	4054	8.30745932701195
s01	140	36:45:54	0.75	0.1833333	Choose a square with about 50 dots	34	Vague	Numeric	RtoL	Large	0.5	-0.5	0.5	0.5	valid_trial	expected	FALSE	2135	7.66622192566273
s01	141	06:15:24	-0.75	0.4875	Choose a square with many dots	30	Vague	Verbal	LtoR	Large	0.5	0.5	-0.5	0.5	valid_trial	expected	FALSE	1307	7.17548971362422
s01	142	16:25:34	-0.25	0.3123529	Choose the square with the fewest dots	38	Crisp	Verbal	RtoL	Small	-0.5	0.5	0.5	-0.5	valid_trial	expected	FALSE	1039	6.94601399109923
s01	143	26:35:44	0.25	0.2308442	Choose a square with about 30 dots	34	Vague	Numeric	LtoR	Small	0.5	-0.5	-0.5	-0.5	valid_trial	extreme	FALSE	1460	7.28619171470238
s01	144	36:45:54	0.75	0.1833333	Choose a square with few dots	29	Vague	Verbal	LtoR	Small	0.5	0.5	-0.5	-0.5	valid_trial	expected	FALSE	1633	7.39817409297047
s01	145	06:15:24	-0.75	0.4875	Choose a square with few dots	29	Vague	Verbal	LtoR	Small	0.5	0.5	-0.5	-0.5	valid_trial	expected	FALSE	1268	7.14519613499717
s01	146	16:25:34	-0.25	0.3123529	Choose the square with 34 dots	30	Crisp	Numeric	LtoR	Large	-0.5	-0.5	-0.5	0.5	valid_trial	expected	FALSE	1688	7.4312996751559
s01	147	26:35:44	0.25	0.2308442	Choose the square with 44 dots	30	Crisp	Numeric	RtoL	Large	-0.5	-0.5	0.5	0.5	valid_trial	expected	FALSE	1861	7.52886925664225
s01	148	36:45:54	0.75	0.1833333	Choose the square with the most dots	36	Crisp	Verbal	LtoR	Large	-0.5	0.5	-0.5	0.5	valid_trial	expected	FALSE	1293	7.16472037877186
s01	149	06:15:24	-0.75	0.4875	Choose the square with 6 dots	29	Crisp	Numeric	RtoL	Small	-0.5	-0.5	0.5	-0.5	valid_trial	expected	FALSE	1200	7.09007683577609
s01	150	16:25:34	-0.25	0.3123529	Choose the square with 34 dots	30	Crisp	Numeric	RtoL	Large	-0.5	-0.5	0.5	0.5	valid_trial	expected	FALSE	1262	7.14045304310116
s01	151	26:35:44	0.25	0.2308442	Choose the square with 26 dots	30	Crisp	Numeric	LtoR	Small	-0.5	-0.5	-0.5	-0.5	valid_trial	borderline	TRUE	2426	7.793999089504
s01	152	36:45:54	0.75	0.1833333	Choose a square with many dots	30	Vague	Verbal	RtoL	Large	0.5	0.5	0.5	0.5	valid_trial	expected	FALSE	2804	7.93880224815448
s01	153	06:15:24	-0.75	0.4875	Choose a square with few dots	29	Vague	Verbal	RtoL	Small	0.5	0.5	0.5	-0.5	valid_trial	expected	FALSE	1153	7.05012252026906
s01	154	16:25:34	-0.25	0.3123529	Choose the square with the most dots	36	Crisp	Verbal	RtoL	Large	-0.5	0.5	0.5	0.5	valid_trial	expected	FALSE	1108	7.01031186730723
s01	155	26:35:44	0.25	0.2308442	Choose a square with few dots	29	Vague	Verbal	RtoL	Small	0.5	0.5	0.5	-0.5	valid_trial	expected	FALSE	1362	7.21670948670946
s01	156	36:45:54	0.75	0.1833333	Choose a square with many dots	30	Vague	Verbal	LtoR	Large	0.5	0.5	-0.5	0.5	valid_trial	expected	FALSE	2119	7.6586995582683
s01	157	06:15:24	-0.75	0.4875	Choose the square with 24 dots	30	Crisp	Numeric	LtoR	Large	-0.5	-0.5	-0.5	0.5	valid_trial	expected	FALSE	1442	7.27378631784489
s01	158	16:25:34	-0.25	0.3123529	Choose a square with few dots	29	Vague	Verbal	LtoR	Small	0.5	0.5	-0.5	-0.5	valid_trial	expected	FALSE	1065	6.97073007814353
s01	159	26:35:44	0.25	0.2308442	Choose a square with few dots	29	Vague	Verbal	LtoR	Small	0.5	0.5	-0.5	-0.5	valid_trial	expected	FALSE	1112	7.01391547481053
s01	160	36:45:54	0.75	0.1833333	Choose a square with about 50 dots	34	Vague	Numeric	LtoR	Large	0.5	-0.5	-0.5	0.5	valid_trial	expected	FALSE	1188	7.08002649992259
s01	161	06:15:24	-0.75	0.4875	Choose the square with 6 dots	29	Crisp	Numeric	LtoR	Small	-0.5	-0.5	-0.5	-0.5	valid_trial	expected	FALSE	734	6.59850902861452
s01	162	16:25:34	-0.25	0.3123529	Choose the square with the fewest dots	38	Crisp	Verbal	LtoR	Small	-0.5	0.5	-0.5	-0.5	valid_trial	expected	FALSE	1400	7.24422751560335
s01	163	26:35:44	0.25	0.2308442	Choose a square with many dots	30	Vague	Verbal	LtoR	Large	0.5	0.5	-0.5	0.5	valid_trial	expected	FALSE	1673	7.42237370098682
s01	164	36:45:54	0.75	0.1833333	Choose the square with 54 dots	30	Crisp	Numeric	LtoR	Large	-0.5	-0.5	-0.5	0.5	valid_trial	expected	FALSE	1631	7.39694860262101
s01	165	06:15:24	-0.75	0.4875	Choose a square with many dots	30	Vague	Verbal	RtoL	Large	0.5	0.5	0.5	0.5	valid_trial	expected	FALSE	1971	7.58629630715272
s01	166	16:25:34	-0.25	0.3123529	Choose a square with about 20 dots	34	Vague	Numeric	LtoR	Small	0.5	-0.5	-0.5	-0.5	valid_trial	borderline	TRUE	3524	8.16735198705607
s01	167	26:35:44	0.25	0.2308442	Choose the square with 44 dots	30	Crisp	Numeric	LtoR	Large	-0.5	-0.5	-0.5	0.5	valid_trial	expected	FALSE	1128	7.028201432058
s01	168	36:45:54	0.75	0.1833333	Choose a square with about 40 dots	34	Vague	Numeric	RtoL	Small	0.5	-0.5	0.5	-0.5	valid_trial	extreme	FALSE	1962	7.58171964012531
s01	169	06:15:24	-0.75	0.4875	Choose the square with the most dots	36	Crisp	Verbal	RtoL	Large	-0.5	0.5	0.5	0.5	valid_trial	expected	FALSE	1045	6.95177216439891
s01	170	16:25:34	-0.25	0.3123529	Choose a square with about 20 dots	34	Vague	Numeric	RtoL	Small	0.5	-0.5	0.5	-0.5	valid_trial	borderline	TRUE	2018	7.60986220091355
s01	171	26:35:44	0.25	0.2308442	Choose the square with the fewest dots	38	Crisp	Verbal	RtoL	Small	-0.5	0.5	0.5	-0.5	valid_trial	expected	FALSE	1240	7.12286665859908
s01	172	36:45:54	0.75	0.1833333	Choose the square with the most dots	36	Crisp	Verbal	RtoL	Large	-0.5	0.5	0.5	0.5	valid_trial	expected	FALSE	1282	7.15617663748062
s01	173	06:15:24	-0.75	0.4875	Choose a square with about 20 dots	34	Vague	Numeric	RtoL	Large	0.5	-0.5	0.5	0.5	valid_trial	expected	FALSE	1276	7.15148546390474
s01	174	16:25:34	-0.25	0.3123529	Choose a square with many dots	30	Vague	Verbal	LtoR	Large	0.5	0.5	-0.5	0.5	valid_trial	expected	FALSE	1256	7.13568734702814
s01	175	26:35:44	0.25	0.2308442	Choose a square with about 30 dots	34	Vague	Numeric	RtoL	Small	0.5	-0.5	0.5	-0.5	valid_trial	extreme	FALSE	1796	7.49331724886215
s01	176	36:45:54	0.75	0.1833333	Choose the square with 36 dots	30	Crisp	Numeric	LtoR	Small	-0.5	-0.5	-0.5	-0.5	valid_trial	extreme	FALSE	1780	7.48436864328613
s01	177	06:15:24	-0.75	0.4875	Choose the square with the most dots	36	Crisp	Verbal	LtoR	Large	-0.5	0.5	-0.5	0.5	valid_trial	expected	FALSE	1565	7.35564110297425
s01	178	16:25:34	-0.25	0.3123529	Choose a square with about 30 dots	34	Vague	Numeric	LtoR	Large	0.5	-0.5	-0.5	0.5	valid_trial	expected	FALSE	1470	7.29301767977278
s01	179	26:35:44	0.25	0.2308442	Choose the square with the most dots	36	Crisp	Verbal	LtoR	Large	-0.5	0.5	-0.5	0.5	valid_trial	expected	FALSE	1841	7.51806418123308
s01	180	36:45:54	0.75	0.1833333	Choose the square with the fewest dots	38	Crisp	Verbal	LtoR	Small	-0.5	0.5	-0.5	-0.5	valid_trial	expected	FALSE	2064	7.63240112660145
s01	181	06:15:24	-0.75	0.4875	Choose the square with the fewest dots	38	Crisp	Verbal	LtoR	Small	-0.5	0.5	-0.5	-0.5	valid_trial	expected	FALSE	866	6.76388490856244
s01	182	16:25:34	-0.25	0.3123529	Choose the square with 16 dots	30	Crisp	Numeric	LtoR	Small	-0.5	-0.5	-0.5	-0.5	valid_trial	borderline	TRUE	1229	7.11395610956603
s01	183	26:35:44	0.25	0.2308442	Choose a square with many dots	30	Vague	Verbal	RtoL	Large	0.5	0.5	0.5	0.5	valid_trial	expected	FALSE	948	6.85435450225502
s01	184	36:45:54	0.75	0.1833333	Choose a square with about 40 dots	34	Vague	Numeric	LtoR	Small	0.5	-0.5	-0.5	-0.5	valid_trial	extreme	FALSE	789	6.67076632084587
s01	185	06:15:24	-0.75	0.4875	Choose the square with 24 dots	30	Crisp	Numeric	RtoL	Large	-0.5	-0.5	0.5	0.5	valid_trial	expected	FALSE	1131	7.03085747611612
s01	186	16:25:34	-0.25	0.3123529	Choose a square with few dots	29	Vague	Verbal	RtoL	Small	0.5	0.5	0.5	-0.5	valid_trial	expected	FALSE	1212	7.10002716662926
s01	187	26:35:44	0.25	0.2308442	Choose the square with the fewest dots	38	Crisp	Verbal	LtoR	Small	-0.5	0.5	-0.5	-0.5	valid_trial	expected	FALSE	1228	7.11314210870709
s01	188	36:45:54	0.75	0.1833333	Choose the square with 54 dots	30	Crisp	Numeric	RtoL	Large	-0.5	-0.5	0.5	0.5	valid_trial	expected	FALSE	1501	7.31388683163346
s01	189	06:15:24	-0.75	0.4875	Choose a square with about 10 dots	34	Vague	Numeric	LtoR	Small	0.5	-0.5	-0.5	-0.5	valid_trial	borderline	TRUE	1285	7.15851399732932
s01	190	16:25:34	-0.25	0.3123529	Choose the square with 16 dots	30	Crisp	Numeric	RtoL	Small	-0.5	-0.5	0.5	-0.5	valid_trial	borderline	TRUE	1980	7.59085212368858
s01	191	26:35:44	0.25	0.2308442	Choose a square with about 40 dots	34	Vague	Numeric	LtoR	Large	0.5	-0.5	-0.5	0.5	valid_trial	expected	FALSE	1671	7.42117752859539
s01	192	36:45:54	0.75	0.1833333	Choose a square with few dots	29	Vague	Verbal	RtoL	Small	0.5	0.5	0.5	-0.5	valid_trial	expected	FALSE	2294	7.73805229768932
s01	193	06:15:24	-0.75	0.4875	Choose a square with many dots	30	Vague	Verbal	LtoR	Large	0.5	0.5	-0.5	0.5	valid_trial	expected	FALSE	943	6.84906628263346
s01	194	16:25:34	-0.25	0.3123529	Choose the square with 16 dots	30	Crisp	Numeric	LtoR	Small	-0.5	-0.5	-0.5	-0.5	valid_trial	borderline	TRUE	1466	7.2902928824466
s01	195	26:35:44	0.25	0.2308442	Choose the square with 44 dots	30	Crisp	Numeric	LtoR	Large	-0.5	-0.5	-0.5	0.5	valid_trial	expected	FALSE	872	6.77078942390898
s01	196	36:45:54	0.75	0.1833333	Choose a square with about 50 dots	34	Vague	Numeric	RtoL	Large	0.5	-0.5	0.5	0.5	valid_trial	expected	FALSE	761	6.63463335786169
s01	197	06:15:24	-0.75	0.4875	Choose the square with the most dots	36	Crisp	Verbal	LtoR	Large	-0.5	0.5	-0.5	0.5	valid_trial	expected	FALSE	615	6.42162226780652
s01	198	16:25:34	-0.25	0.3123529	Choose a square with few dots	29	Vague	Verbal	LtoR	Small	0.5	0.5	-0.5	-0.5	valid_trial	expected	FALSE	805	6.69084227741856
s01	199	26:35:44	0.25	0.2308442	Choose the square with the fewest dots	38	Crisp	Verbal	LtoR	Small	-0.5	0.5	-0.5	-0.5	valid_trial	expected	FALSE	1040	6.94697599213542
s01	200	36:45:54	0.75	0.1833333	Choose the square with the fewest dots	38	Crisp	Verbal	LtoR	Small	-0.5	0.5	-0.5	-0.5	valid_trial	expected	FALSE	2051	7.62608275807238
s01	201	06:15:24	-0.75	0.4875	Choose the square with the fewest dots	38	Crisp	Verbal	RtoL	Small	-0.5	0.5	0.5	-0.5	valid_trial	expected	FALSE	1247	7.12849594568004
s01	202	16:25:34	-0.25	0.3123529	Choose the square with 34 dots	30	Crisp	Numeric	LtoR	Large	-0.5	-0.5	-0.5	0.5	valid_trial	expected	FALSE	1943	7.57198844937744
s01	203	26:35:44	0.25	0.2308442	Choose a square with few dots	29	Vague	Verbal	RtoL	Small	0.5	0.5	0.5	-0.5	valid_trial	expected	FALSE	979	6.88653164253051
s01	204	36:45:54	0.75	0.1833333	Choose the square with 36 dots	30	Crisp	Numeric	RtoL	Small	-0.5	-0.5	0.5	-0.5	valid_trial	extreme	FALSE	2863	7.95962530509811
s01	205	06:15:24	-0.75	0.4875	Choose a square with about 10 dots	34	Vague	Numeric	RtoL	Small	0.5	-0.5	0.5	-0.5	valid_trial	borderline	TRUE	1087	6.99117688712121
s01	206	16:25:34	-0.25	0.3123529	Choose a square with about 30 dots	34	Vague	Numeric	RtoL	Large	0.5	-0.5	0.5	0.5	valid_trial	expected	FALSE	873	6.7719355558396
s01	207	26:35:44	0.25	0.2308442	Choose a square with many dots	30	Vague	Verbal	LtoR	Large	0.5	0.5	-0.5	0.5	valid_trial	expected	FALSE	1047	6.95368421087054
s01	208	36:45:54	0.75	0.1833333	Choose the square with 54 dots	30	Crisp	Numeric	LtoR	Large	-0.5	-0.5	-0.5	0.5	valid_trial	expected	FALSE	842	6.73578001424233
s01	209	06:15:24	-0.75	0.4875	Choose a square with few dots	29	Vague	Verbal	RtoL	Small	0.5	0.5	0.5	-0.5	valid_trial	expected	FALSE	821	6.71052310945243
s01	210	16:25:34	-0.25	0.3123529	Choose a square with many dots	30	Vague	Verbal	RtoL	Large	0.5	0.5	0.5	0.5	valid_trial	expected	FALSE	1849	7.52240023138712
s01	211	26:35:44	0.25	0.2308442	Choose the square with 44 dots	30	Crisp	Numeric	RtoL	Large	-0.5	-0.5	0.5	0.5	valid_trial	expected	FALSE	1229	7.11395610956603
s01	212	36:45:54	0.75	0.1833333	Choose a square with many dots	30	Vague	Verbal	LtoR	Large	0.5	0.5	-0.5	0.5	valid_trial	expected	FALSE	1512	7.32118855673948
s01	213	06:15:24	-0.75	0.4875	Choose the square with 6 dots	29	Crisp	Numeric	LtoR	Small	-0.5	-0.5	-0.5	-0.5	valid_trial	expected	FALSE	838	6.73101810048208
s01	214	16:25:34	-0.25	0.3123529	Choose the square with 34 dots	30	Crisp	Numeric	RtoL	Large	-0.5	-0.5	0.5	0.5	valid_trial	expected	FALSE	1471	7.29369772060144
s01	215	26:35:44	0.25	0.2308442	Choose the square with the most dots	36	Crisp	Verbal	RtoL	Large	-0.5	0.5	0.5	0.5	valid_trial	expected	FALSE	1251	7.13169851046691
s01	216	36:45:54	0.75	0.1833333	Choose the square with 36 dots	30	Crisp	Numeric	LtoR	Small	-0.5	-0.5	-0.5	-0.5	valid_trial	extreme	FALSE	1150	7.0475172213573
s01	217	06:15:24	-0.75	0.4875	Choose a square with about 20 dots	34	Vague	Numeric	LtoR	Large	0.5	-0.5	-0.5	0.5	valid_trial	expected	FALSE	1436	7.26961674960817
s01	218	16:25:34	-0.25	0.3123529	Choose a square with many dots	30	Vague	Verbal	LtoR	Large	0.5	0.5	-0.5	0.5	valid_trial	expected	FALSE	1352	7.20934025660291
s01	219	26:35:44	0.25	0.2308442	Choose a square with few dots	29	Vague	Verbal	LtoR	Small	0.5	0.5	-0.5	-0.5	valid_trial	expected	FALSE	1199	7.08924315502751
s01	220	36:45:54	0.75	0.1833333	Choose a square with about 40 dots	34	Vague	Numeric	RtoL	Small	0.5	-0.5	0.5	-0.5	valid_trial	extreme	FALSE	1804	7.49776170062257
s01	221	06:15:24	-0.75	0.4875	Choose the square with the fewest dots	38	Crisp	Verbal	LtoR	Small	-0.5	0.5	-0.5	-0.5	valid_trial	expected	FALSE	1254	7.13409372119287
s01	222	16:25:34	-0.25	0.3123529	Choose the square with the fewest dots	38	Crisp	Verbal	LtoR	Small	-0.5	0.5	-0.5	-0.5	valid_trial	expected	FALSE	1291	7.16317239084664
s01	223	26:35:44	0.25	0.2308442	Choose a square with about 30 dots	34	Vague	Numeric	RtoL	Small	0.5	-0.5	0.5	-0.5	valid_trial	extreme	FALSE	1175	7.06902342657826
s01	224	36:45:54	0.75	0.1833333	Choose the square with the fewest dots	38	Crisp	Verbal	RtoL	Small	-0.5	0.5	0.5	-0.5	valid_trial	extreme	FALSE	1938	7.56941179245071
s01	225	06:15:24	-0.75	0.4875	Choose a square with about 10 dots	34	Vague	Numeric	LtoR	Small	0.5	-0.5	-0.5	-0.5	valid_trial	borderline	TRUE	2501	7.82444593087762
s01	226	16:25:34	-0.25	0.3123529	Choose a square with about 30 dots	34	Vague	Numeric	LtoR	Large	0.5	-0.5	-0.5	0.5	valid_trial	expected	FALSE	1986	7.59387784460512
s01	227	26:35:44	0.25	0.2308442	Choose a square with about 30 dots	34	Vague	Numeric	LtoR	Small	0.5	-0.5	-0.5	-0.5	valid_trial	extreme	FALSE	1378	7.2283884515736
s01	228	36:45:54	0.75	0.1833333	Choose a square with few dots	29	Vague	Verbal	RtoL	Small	0.5	0.5	0.5	-0.5	valid_trial	borderline	TRUE	3158	8.05769419481559
s01	229	06:15:24	-0.75	0.4875	Choose the square with the most dots	36	Crisp	Verbal	RtoL	Large	-0.5	0.5	0.5	0.5	valid_trial	expected	FALSE	1427	7.26332961747684
s01	230	16:25:34	-0.25	0.3123529	Choose the square with the most dots	36	Crisp	Verbal	LtoR	Large	-0.5	0.5	-0.5	0.5	valid_trial	expected	FALSE	1218	7.10496544826984
s01	231	26:35:44	0.25	0.2308442	Choose a square with about 40 dots	34	Vague	Numeric	RtoL	Large	0.5	-0.5	0.5	0.5	valid_trial	expected	FALSE	1063	6.96885037834195
s01	232	36:45:54	0.75	0.1833333	Choose the square with 54 dots	30	Crisp	Numeric	RtoL	Large	-0.5	-0.5	0.5	0.5	valid_trial	expected	FALSE	1297	7.16780918431644
s01	233	06:15:24	-0.75	0.4875	Choose the square with 24 dots	30	Crisp	Numeric	LtoR	Large	-0.5	-0.5	-0.5	0.5	valid_trial	expected	FALSE	2573	7.85282781228174
s01	234	16:25:34	-0.25	0.3123529	Choose a square with about 20 dots	34	Vague	Numeric	LtoR	Small	0.5	-0.5	-0.5	-0.5	valid_trial	borderline	TRUE	2250	7.71868549519847
s01	235	26:35:44	0.25	0.2308442	Choose a square with many dots	30	Vague	Verbal	RtoL	Large	0.5	0.5	0.5	0.5	valid_trial	expected	FALSE	1457	7.2841348061952
s01	236	36:45:54	0.75	0.1833333	Choose the square with the most dots	36	Crisp	Verbal	LtoR	Large	-0.5	0.5	-0.5	0.5	valid_trial	expected	FALSE	1118	7.01929665371504
s01	237	06:15:24	-0.75	0.4875	Choose a square with many dots	30	Vague	Verbal	RtoL	Large	0.5	0.5	0.5	0.5	valid_trial	expected	FALSE	2245	7.71646080017636
s01	238	16:25:34	-0.25	0.3123529	Choose a square with about 20 dots	34	Vague	Numeric	RtoL	Small	0.5	-0.5	0.5	-0.5	valid_trial	borderline	TRUE	2330	7.75362354655975
s01	239	26:35:44	0.25	0.2308442	Choose the square with 26 dots	30	Crisp	Numeric	RtoL	Small	-0.5	-0.5	0.5	-0.5	valid_trial	borderline	TRUE	3040	8.01961279440027
s01	240	36:45:54	0.75	0.1833333	Choose the square with the most dots	36	Crisp	Verbal	RtoL	Large	-0.5	0.5	0.5	0.5	valid_trial	expected	FALSE	804	6.68959926917897
s01	241	06:15:24	-0.75	0.4875	Choose the square with 6 dots	29	Crisp	Numeric	RtoL	Small	-0.5	-0.5	0.5	-0.5	valid_trial	expected	FALSE	1247	7.12849594568004
s01	242	16:25:34	-0.25	0.3123529	Choose the square with 16 dots	30	Crisp	Numeric	RtoL	Small	-0.5	-0.5	0.5	-0.5	valid_trial	expected	FALSE	2478	7.81520706218909
s01	243	26:35:44	0.25	0.2308442	Choose a square with about 40 dots	34	Vague	Numeric	LtoR	Large	0.5	-0.5	-0.5	0.5	valid_trial	expected	FALSE	1475	7.29641326877392
s01	244	36:45:54	0.75	0.1833333	Choose a square with about 50 dots	34	Vague	Numeric	LtoR	Large	0.5	-0.5	-0.5	0.5	valid_trial	expected	FALSE	1433	7.26752542782817
s01	245	06:15:24	-0.75	0.4875	Choose the square with 24 dots	30	Crisp	Numeric	RtoL	Large	-0.5	-0.5	0.5	0.5	valid_trial	expected	FALSE	1822	7.5076900778199
s01	246	16:25:34	-0.25	0.3123529	Choose a square with few dots	29	Vague	Verbal	RtoL	Small	0.5	0.5	0.5	-0.5	valid_trial	expected	FALSE	1782	7.48549160803075
s01	247	26:35:44	0.25	0.2308442	Choose the square with 26 dots	30	Crisp	Numeric	LtoR	Small	-0.5	-0.5	-0.5	-0.5	valid_trial	borderline	TRUE	1448	7.27793857294566
s01	248	36:45:54	0.75	0.1833333	Choose a square with many dots	30	Vague	Verbal	RtoL	Large	0.5	0.5	0.5	0.5	valid_trial	expected	FALSE	1679	7.42595365707754
s01	249	06:15:24	-0.75	0.4875	Choose a square with few dots	29	Vague	Verbal	LtoR	Small	0.5	0.5	-0.5	-0.5	valid_trial	expected	FALSE	1052	6.95844839329766
s01	250	16:25:34	-0.25	0.3123529	Choose the square with the most dots	36	Crisp	Verbal	RtoL	Large	-0.5	0.5	0.5	0.5	valid_trial	expected	FALSE	1151	7.04838640872188
s01	251	26:35:44	0.25	0.2308442	Choose the square with the fewest dots	38	Crisp	Verbal	RtoL	Small	-0.5	0.5	0.5	-0.5	valid_trial	expected	FALSE	2248	7.71779621101358
s01	252	36:45:54	0.75	0.1833333	Choose a square with about 40 dots	34	Vague	Numeric	LtoR	Small	0.5	-0.5	-0.5	-0.5	valid_trial	extreme	FALSE	1766	7.47647238116391
s01	253	06:15:24	-0.75	0.4875	Choose a square with about 20 dots	34	Vague	Numeric	RtoL	Large	0.5	-0.5	0.5	0.5	valid_trial	borderline	TRUE	2872	7.96276393016811
s01	254	16:25:34	-0.25	0.3123529	Choose the square with the fewest dots	38	Crisp	Verbal	RtoL	Small	-0.5	0.5	0.5	-0.5	valid_trial	expected	FALSE	2537	7.83873755959928
s01	255	26:35:44	0.25	0.2308442	Choose the square with the most dots	36	Crisp	Verbal	LtoR	Large	-0.5	0.5	-0.5	0.5	valid_trial	expected	FALSE	1008	6.91572344863131
s01	256	36:45:54	0.75	0.1833333	Choose a square with few dots	29	Vague	Verbal	LtoR	Small	0.5	0.5	-0.5	-0.5	valid_trial	expected	FALSE	1476	7.29709100516042
s02	1	06:15:24	-0.75	0.4875	Choose a square with about 10 dots	34	Vague	Numeric	RtoL	Small	0.5	-0.5	0.5	-0.5	valid_trial	borderline	TRUE	1915	7.55747290161475
s02	2	16:25:34	-0.25	0.3123529	Choose the square with 16 dots	30	Crisp	Numeric	LtoR	Small	-0.5	-0.5	-0.5	-0.5	valid_trial	borderline	TRUE	1617	7.38832785957711
s02	3	26:35:44	0.25	0.2308442	Choose the square with 44 dots	30	Crisp	Numeric	LtoR	Large	-0.5	-0.5	-0.5	0.5	valid_trial	expected	FALSE	1150	7.0475172213573
s02	4	36:45:54	0.75	0.1833333	Choose the square with the fewest dots	38	Crisp	Verbal	LtoR	Small	-0.5	0.5	-0.5	-0.5	valid_trial	expected	FALSE	1828	7.5109777520141
s02	5	06:15:24	-0.75	0.4875	Choose a square with many dots	30	Vague	Verbal	RtoL	Large	0.5	0.5	0.5	0.5	valid_trial	expected	FALSE	1441	7.27309259599952
s02	6	16:25:34	-0.25	0.3123529	Choose a square with few dots	29	Vague	Verbal	RtoL	Small	0.5	0.5	0.5	-0.5	valid_trial	extreme	FALSE	1981	7.59135704669855
s02	7	26:35:44	0.25	0.2308442	Choose the square with the most dots	36	Crisp	Verbal	LtoR	Large	-0.5	0.5	-0.5	0.5	valid_trial	expected	FALSE	1214	7.10167597161944
s02	8	36:45:54	0.75	0.1833333	Choose the square with the fewest dots	38	Crisp	Verbal	RtoL	Small	-0.5	0.5	0.5	-0.5	valid_trial	expected	FALSE	1435	7.26892012819372
s02	9	06:15:24	-0.75	0.4875	Choose a square with many dots	30	Vague	Verbal	LtoR	Large	0.5	0.5	-0.5	0.5	valid_trial	expected	FALSE	1627	7.39449310721904
s02	10	16:25:34	-0.25	0.3123529	Choose a square with many dots	30	Vague	Verbal	LtoR	Large	0.5	0.5	-0.5	0.5	valid_trial	expected	FALSE	1032	6.93925394604151
s02	11	26:35:44	0.25	0.2308442	Choose a square with few dots	29	Vague	Verbal	RtoL	Small	0.5	0.5	0.5	-0.5	valid_trial	extreme	FALSE	769	6.64509096950564
s02	12	36:45:54	0.75	0.1833333	Choose a square with about 50 dots	34	Vague	Numeric	RtoL	Large	0.5	-0.5	0.5	0.5	valid_trial	expected	FALSE	1040	6.94697599213542
s02	13	06:15:24	-0.75	0.4875	Choose a square with few dots	29	Vague	Verbal	LtoR	Small	0.5	0.5	-0.5	-0.5	valid_trial	expected	FALSE	1353	7.21007962817079
s02	14	16:25:34	-0.25	0.3123529	Choose a square with about 30 dots	34	Vague	Numeric	RtoL	Large	0.5	-0.5	0.5	0.5	valid_trial	borderline	TRUE	1245	7.12689080889881
s02	15	26:35:44	0.25	0.2308442	Choose the square with the fewest dots	38	Crisp	Verbal	LtoR	Small	-0.5	0.5	-0.5	-0.5	valid_trial	expected	FALSE	1967	7.58426481838906
s02	16	36:45:54	0.75	0.1833333	Choose a square with about 40 dots	34	Vague	Numeric	RtoL	Small	0.5	-0.5	0.5	-0.5	valid_trial	borderline	TRUE	1677	7.42476176182321
s02	17	06:15:24	-0.75	0.4875	Choose a square with about 20 dots	34	Vague	Numeric	RtoL	Large	0.5	-0.5	0.5	0.5	valid_trial	borderline	TRUE	1620	7.39018142822643
s02	18	16:25:34	-0.25	0.3123529	Choose a square with about 20 dots	34	Vague	Numeric	RtoL	Small	0.5	-0.5	0.5	-0.5	valid_trial	expected	FALSE	1863	7.52994337060159
s02	19	26:35:44	0.25	0.2308442	Choose the square with 26 dots	30	Crisp	Numeric	LtoR	Small	-0.5	-0.5	-0.5	-0.5	valid_trial	borderline	TRUE	1337	7.19818357710194
s02	20	36:45:54	0.75	0.1833333	Choose a square with many dots	30	Vague	Verbal	RtoL	Large	0.5	0.5	0.5	0.5	valid_trial	borderline	TRUE	1406	7.24850407237061
s02	21	06:15:24	-0.75	0.4875	Choose the square with 6 dots	29	Crisp	Numeric	LtoR	Small	-0.5	-0.5	-0.5	-0.5	valid_trial	expected	FALSE	987	6.89467003943348
s02	22	16:25:34	-0.25	0.3123529	Choose the square with the most dots	36	Crisp	Verbal	LtoR	Large	-0.5	0.5	-0.5	0.5	valid_trial	expected	FALSE	1198	7.08840877867539
s02	23	26:35:44	0.25	0.2308442	Choose the square with 26 dots	30	Crisp	Numeric	RtoL	Small	-0.5	-0.5	0.5	-0.5	valid_trial	borderline	TRUE	967	6.87419849545329
s02	24	36:45:54	0.75	0.1833333	Choose a square with few dots	29	Vague	Verbal	RtoL	Small	0.5	0.5	0.5	-0.5	valid_trial	expected	FALSE	1649	7.4079243225596
s02	25	06:15:24	-0.75	0.4875	Choose the square with the fewest dots	38	Crisp	Verbal	RtoL	Small	-0.5	0.5	0.5	-0.5	valid_trial	borderline	TRUE	1588	7.37023064180708
s02	26	16:25:34	-0.25	0.3123529	Choose the square with 34 dots	30	Crisp	Numeric	RtoL	Large	-0.5	-0.5	0.5	0.5	valid_trial	borderline	TRUE	943	6.84906628263346
s02	27	26:35:44	0.25	0.2308442	Choose a square with many dots	30	Vague	Verbal	LtoR	Large	0.5	0.5	-0.5	0.5	valid_trial	borderline	TRUE	1038	6.94505106372583
s02	28	36:45:54	0.75	0.1833333	Choose a square with about 40 dots	34	Vague	Numeric	LtoR	Small	0.5	-0.5	-0.5	-0.5	valid_trial	expected	FALSE	1784	7.48661331313996
s02	29	06:15:24	-0.75	0.4875	Choose the square with the fewest dots	38	Crisp	Verbal	LtoR	Small	-0.5	0.5	-0.5	-0.5	valid_trial	expected	FALSE	1221	7.1074254741107
s02	30	16:25:34	-0.25	0.3123529	Choose a square with about 20 dots	34	Vague	Numeric	LtoR	Small	0.5	-0.5	-0.5	-0.5	valid_trial	expected	FALSE	1209	7.09754885061479
s02	31	26:35:44	0.25	0.2308442	Choose a square with about 30 dots	34	Vague	Numeric	LtoR	Small	0.5	-0.5	-0.5	-0.5	valid_trial	borderline	TRUE	1666	7.41818082272679
s02	32	36:45:54	0.75	0.1833333	Choose a square with about 50 dots	34	Vague	Numeric	LtoR	Large	0.5	-0.5	-0.5	0.5	valid_trial	expected	FALSE	911	6.81454289725996
s02	33	06:15:24	-0.75	0.4875	Choose a square with about 20 dots	34	Vague	Numeric	LtoR	Large	0.5	-0.5	-0.5	0.5	valid_trial	borderline	TRUE	1938	7.56941179245071
s02	34	16:25:34	-0.25	0.3123529	Choose a square with many dots	30	Vague	Verbal	RtoL	Large	0.5	0.5	0.5	0.5	valid_trial	borderline	TRUE	1761	7.47363710849621
s02	35	26:35:44	0.25	0.2308442	Choose a square with many dots	30	Vague	Verbal	RtoL	Large	0.5	0.5	0.5	0.5	valid_trial	borderline	TRUE	1900	7.54960916515453
s02	36	36:45:54	0.75	0.1833333	Choose a square with few dots	29	Vague	Verbal	LtoR	Small	0.5	0.5	-0.5	-0.5	valid_trial	expected	FALSE	1753	7.46908388492123
s02	37	06:15:24	-0.75	0.4875	Choose the square with the most dots	36	Crisp	Verbal	LtoR	Large	-0.5	0.5	-0.5	0.5	valid_trial	expected	FALSE	745	6.61338421837956
s02	38	16:25:34	-0.25	0.3123529	Choose the square with the fewest dots	38	Crisp	Verbal	LtoR	Small	-0.5	0.5	-0.5	-0.5	valid_trial	expected	FALSE	1886	7.5422134631934
s02	39	26:35:44	0.25	0.2308442	Choose a square with few dots	29	Vague	Verbal	LtoR	Small	0.5	0.5	-0.5	-0.5	valid_trial	expected	FALSE	1326	7.18992217074581
s02	40	36:45:54	0.75	0.1833333	Choose the square with 54 dots	30	Crisp	Numeric	RtoL	Large	-0.5	-0.5	0.5	0.5	valid_trial	extreme	FALSE	1208	7.09672137849476
s02	41	06:15:24	-0.75	0.4875	Choose the square with the most dots	36	Crisp	Verbal	RtoL	Large	-0.5	0.5	0.5	0.5	valid_trial	expected	FALSE	1282	7.15617663748062
s02	42	16:25:34	-0.25	0.3123529	Choose a square with about 30 dots	34	Vague	Numeric	LtoR	Large	0.5	-0.5	-0.5	0.5	valid_trial	borderline	TRUE	859	6.75576892198425
s02	43	26:35:44	0.25	0.2308442	Choose a square with about 40 dots	34	Vague	Numeric	RtoL	Large	0.5	-0.5	0.5	0.5	valid_trial	extreme	FALSE	1252	7.13249755166004
s02	44	36:45:54	0.75	0.1833333	Choose the square with 36 dots	30	Crisp	Numeric	LtoR	Small	-0.5	-0.5	-0.5	-0.5	valid_trial	expected	FALSE	1426	7.26262860097424
s02	45	06:15:24	-0.75	0.4875	Choose the square with 24 dots	30	Crisp	Numeric	RtoL	Large	-0.5	-0.5	0.5	0.5	valid_trial	expected	FALSE	1591	7.37211802833779
s02	46	16:25:34	-0.25	0.3123529	Choose a square with few dots	29	Vague	Verbal	LtoR	Small	0.5	0.5	-0.5	-0.5	valid_trial	expected	FALSE	1375	7.22620901010067
s02	47	26:35:44	0.25	0.2308442	Choose a square with about 30 dots	34	Vague	Numeric	RtoL	Small	0.5	-0.5	0.5	-0.5	valid_trial	borderline	TRUE	1328	7.19142933003638
s02	48	36:45:54	0.75	0.1833333	Choose the square with the most dots	36	Crisp	Verbal	LtoR	Large	-0.5	0.5	-0.5	0.5	valid_trial	extreme	FALSE	2045	7.6231530684769
s02	49	06:15:24	-0.75	0.4875	Choose a square with about 10 dots	34	Vague	Numeric	LtoR	Small	0.5	-0.5	-0.5	-0.5	valid_trial	borderline	TRUE	1562	7.35372233039963
s02	50	16:25:34	-0.25	0.3123529	Choose the square with 34 dots	30	Crisp	Numeric	LtoR	Large	-0.5	-0.5	-0.5	0.5	valid_trial	borderline	TRUE	1242	7.12447826249342
s02	51	26:35:44	0.25	0.2308442	Choose the square with the most dots	36	Crisp	Verbal	RtoL	Large	-0.5	0.5	0.5	0.5	valid_trial	borderline	TRUE	2367	7.76937860951398
s02	52	36:45:54	0.75	0.1833333	Choose a square with many dots	30	Vague	Verbal	LtoR	Large	0.5	0.5	-0.5	0.5	valid_trial	expected	FALSE	1084	6.98841318199959
s02	53	06:15:24	-0.75	0.4875	Choose the square with 6 dots	29	Crisp	Numeric	RtoL	Small	-0.5	-0.5	0.5	-0.5	valid_trial	expected	FALSE	1334	7.19593722647557
s02	54	16:25:34	-0.25	0.3123529	Choose the square with the fewest dots	38	Crisp	Verbal	RtoL	Small	-0.5	0.5	0.5	-0.5	valid_trial	expected	FALSE	1088	6.99209642741589
s02	55	26:35:44	0.25	0.2308442	Choose the square with the fewest dots	38	Crisp	Verbal	RtoL	Small	-0.5	0.5	0.5	-0.5	valid_trial	expected	FALSE	1762	7.47420480649612
s02	56	36:45:54	0.75	0.1833333	Choose the square with the most dots	36	Crisp	Verbal	RtoL	Large	-0.5	0.5	0.5	0.5	valid_trial	expected	FALSE	1544	7.34213173058472
s02	57	06:15:24	-0.75	0.4875	Choose the square with 24 dots	30	Crisp	Numeric	LtoR	Large	-0.5	-0.5	-0.5	0.5	valid_trial	expected	FALSE	2131	7.66434663209862
s02	58	16:25:34	-0.25	0.3123529	Choose the square with the most dots	36	Crisp	Verbal	RtoL	Large	-0.5	0.5	0.5	0.5	valid_trial	expected	FALSE	1543	7.34148385236316
s02	59	26:35:44	0.25	0.2308442	Choose the square with 44 dots	30	Crisp	Numeric	RtoL	Large	-0.5	-0.5	0.5	0.5	valid_trial	expected	FALSE	833	6.72503364216684
s02	60	36:45:54	0.75	0.1833333	Choose the square with 36 dots	30	Crisp	Numeric	RtoL	Small	-0.5	-0.5	0.5	-0.5	valid_trial	borderline	TRUE	1088	6.99209642741589
s02	61	06:15:24	-0.75	0.4875	Choose a square with few dots	29	Vague	Verbal	RtoL	Small	0.5	0.5	0.5	-0.5	valid_trial	expected	FALSE	885	6.78558764500793
s02	62	16:25:34	-0.25	0.3123529	Choose the square with 16 dots	30	Crisp	Numeric	RtoL	Small	-0.5	-0.5	0.5	-0.5	valid_trial	expected	FALSE	1875	7.53636393840451
s02	63	26:35:44	0.25	0.2308442	Choose a square with about 40 dots	34	Vague	Numeric	LtoR	Large	0.5	-0.5	-0.5	0.5	valid_trial	borderline	TRUE	1788	7.48885295573346
s02	64	36:45:54	0.75	0.1833333	Choose the square with 54 dots	30	Crisp	Numeric	LtoR	Large	-0.5	-0.5	-0.5	0.5	valid_trial	expected	FALSE	1919	7.5595594960077
s02	65	06:15:24	-0.75	0.4875	Choose the square with 24 dots	30	Crisp	Numeric	RtoL	Large	-0.5	-0.5	0.5	0.5	valid_trial	expected	FALSE	5056	8.52833093582669
s02	66	16:25:34	-0.25	0.3123529	Choose the square with 34 dots	30	Crisp	Numeric	RtoL	Large	-0.5	-0.5	0.5	0.5	valid_trial	borderline	TRUE	1777	7.48268182815465
s02	67	26:35:44	0.25	0.2308442	Choose the square with the most dots	36	Crisp	Verbal	LtoR	Large	-0.5	0.5	-0.5	0.5	valid_trial	expected	FALSE	657	6.48768401848461
s02	68	36:45:54	0.75	0.1833333	Choose the square with the most dots	36	Crisp	Verbal	LtoR	Large	-0.5	0.5	-0.5	0.5	valid_trial	expected	FALSE	1944	7.57250298502038
s02	69	06:15:24	-0.75	0.4875	Choose the square with the most dots	36	Crisp	Verbal	LtoR	Large	-0.5	0.5	-0.5	0.5	valid_trial	expected	FALSE	1443	7.27447955877387
s02	70	16:25:34	-0.25	0.3123529	Choose the square with the fewest dots	38	Crisp	Verbal	LtoR	Small	-0.5	0.5	-0.5	-0.5	valid_trial	expected	FALSE	1506	7.31721240835984
s02	71	26:35:44	0.25	0.2308442	Choose a square with few dots	29	Vague	Verbal	RtoL	Small	0.5	0.5	0.5	-0.5	valid_trial	expected	FALSE	776	6.65415252018322
s02	72	36:45:54	0.75	0.1833333	Choose the square with the fewest dots	38	Crisp	Verbal	RtoL	Small	-0.5	0.5	0.5	-0.5	valid_trial	expected	FALSE	1356	7.21229446850034
s02	73	06:15:24	-0.75	0.4875	Choose the square with 24 dots	30	Crisp	Numeric	LtoR	Large	-0.5	-0.5	-0.5	0.5	valid_trial	borderline	TRUE	11150	9.31919477688827
s02	74	16:25:34	-0.25	0.3123529	Choose a square with about 20 dots	34	Vague	Numeric	LtoR	Small	0.5	-0.5	-0.5	-0.5	valid_trial	expected	FALSE	2902	7.97315543344413
s02	75	26:35:44	0.25	0.2308442	Choose a square with about 30 dots	34	Vague	Numeric	RtoL	Small	0.5	-0.5	0.5	-0.5	valid_trial	expected	FALSE	1645	7.40549566319947
s02	76	36:45:54	0.75	0.1833333	Choose a square with many dots	30	Vague	Verbal	RtoL	Large	0.5	0.5	0.5	0.5	valid_trial	expected	FALSE	1079	6.98378996525813
s02	77	06:15:24	-0.75	0.4875	Choose a square with about 20 dots	34	Vague	Numeric	LtoR	Large	0.5	-0.5	-0.5	0.5	valid_trial	borderline	TRUE	1538	7.33823815006559
s02	78	16:25:34	-0.25	0.3123529	Choose a square with few dots	29	Vague	Verbal	RtoL	Small	0.5	0.5	0.5	-0.5	valid_trial	expected	FALSE	2314	7.74673290775362
s02	79	26:35:44	0.25	0.2308442	Choose a square with about 40 dots	34	Vague	Numeric	LtoR	Large	0.5	-0.5	-0.5	0.5	valid_trial	borderline	TRUE	1353	7.21007962817079
s02	80	36:45:54	0.75	0.1833333	Choose a square with about 50 dots	34	Vague	Numeric	LtoR	Large	0.5	-0.5	-0.5	0.5	valid_trial	expected	FALSE	2284	7.7336835707759
s02	81	06:15:24	-0.75	0.4875	Choose the square with the most dots	36	Crisp	Verbal	RtoL	Large	-0.5	0.5	0.5	0.5	valid_trial	expected	FALSE	684	6.52795791762255
s02	82	16:25:34	-0.25	0.3123529	Choose a square with about 30 dots	34	Vague	Numeric	LtoR	Large	0.5	-0.5	-0.5	0.5	valid_trial	extreme	FALSE	2169	7.68202151082687
s02	83	26:35:44	0.25	0.2308442	Choose a square with many dots	30	Vague	Verbal	LtoR	Large	0.5	0.5	-0.5	0.5	valid_trial	expected	FALSE	1040	6.94697599213542
s02	84	36:45:54	0.75	0.1833333	Choose the square with 36 dots	30	Crisp	Numeric	RtoL	Small	-0.5	-0.5	0.5	-0.5	valid_trial	expected	FALSE	1065	6.97073007814353
s02	85	06:15:24	-0.75	0.4875	Choose a square with few dots	29	Vague	Verbal	LtoR	Small	0.5	0.5	-0.5	-0.5	valid_trial	expected	FALSE	875	6.77422388635761
s02	86	16:25:34	-0.25	0.3123529	Choose the square with 16 dots	30	Crisp	Numeric	LtoR	Small	-0.5	-0.5	-0.5	-0.5	valid_trial	borderline	TRUE	5723	8.6522484224091
s02	87	26:35:44	0.25	0.2308442	Choose a square with many dots	30	Vague	Verbal	RtoL	Large	0.5	0.5	0.5	0.5	valid_trial	expected	FALSE	1089	6.99301512293296
s02	88	36:45:54	0.75	0.1833333	Choose a square with many dots	30	Vague	Verbal	LtoR	Large	0.5	0.5	-0.5	0.5	valid_trial	expected	FALSE	1761	7.47363710849621
s02	89	06:15:24	-0.75	0.4875	Choose a square with about 10 dots	34	Vague	Numeric	LtoR	Small	0.5	-0.5	-0.5	-0.5	valid_trial	borderline	TRUE	2302	7.74153358928183
s02	90	16:25:34	-0.25	0.3123529	Choose the square with 34 dots	30	Crisp	Numeric	LtoR	Large	-0.5	-0.5	-0.5	0.5	valid_trial	borderline	TRUE	2708	7.90396563403217
s02	91	26:35:44	0.25	0.2308442	Choose a square with few dots	29	Vague	Verbal	LtoR	Small	0.5	0.5	-0.5	-0.5	valid_trial	expected	FALSE	814	6.70196036600254
s02	92	36:45:54	0.75	0.1833333	Choose the square with the fewest dots	38	Crisp	Verbal	LtoR	Small	-0.5	0.5	-0.5	-0.5	valid_trial	borderline	TRUE	4531	8.41869794466714
s02	93	06:15:24	-0.75	0.4875	Choose a square with many dots	30	Vague	Verbal	LtoR	Large	0.5	0.5	-0.5	0.5	valid_trial	expected	FALSE	956	6.8627579130514
s02	94	16:25:34	-0.25	0.3123529	Choose the square with the fewest dots	38	Crisp	Verbal	RtoL	Small	-0.5	0.5	0.5	-0.5	valid_trial	expected	FALSE	929	6.83410873881384
s02	95	26:35:44	0.25	0.2308442	Choose the square with the most dots	36	Crisp	Verbal	RtoL	Large	-0.5	0.5	0.5	0.5	valid_trial	expected	FALSE	1718	7.4489161025442
s02	96	36:45:54	0.75	0.1833333	Choose a square with about 50 dots	34	Vague	Numeric	RtoL	Large	0.5	-0.5	0.5	0.5	valid_trial	expected	FALSE	1528	7.33171496972647
s02	97	06:15:24	-0.75	0.4875	Choose a square with about 10 dots	34	Vague	Numeric	RtoL	Small	0.5	-0.5	0.5	-0.5	valid_trial	borderline	TRUE	1561	7.35308192051543
s02	98	16:25:34	-0.25	0.3123529	Choose a square with about 20 dots	34	Vague	Numeric	RtoL	Small	0.5	-0.5	0.5	-0.5	valid_trial	expected	FALSE	1821	7.50714107972761
s02	99	26:35:44	0.25	0.2308442	Choose the square with 44 dots	30	Crisp	Numeric	LtoR	Large	-0.5	-0.5	-0.5	0.5	valid_trial	borderline	TRUE	1382	7.23128700432762
s02	100	36:45:54	0.75	0.1833333	Choose a square with few dots	29	Vague	Verbal	LtoR	Small	0.5	0.5	-0.5	-0.5	valid_trial	expected	FALSE	2169	7.68202151082687
s02	101	06:15:24	-0.75	0.4875	Choose the square with 6 dots	29	Crisp	Numeric	RtoL	Small	-0.5	-0.5	0.5	-0.5	valid_trial	expected	FALSE	1000	6.90775527898214
s02	102	16:25:34	-0.25	0.3123529	Choose a square with about 30 dots	34	Vague	Numeric	RtoL	Large	0.5	-0.5	0.5	0.5	valid_trial	expected	FALSE	1342	7.20191631753163
s02	103	26:35:44	0.25	0.2308442	Choose the square with the fewest dots	38	Crisp	Verbal	RtoL	Small	-0.5	0.5	0.5	-0.5	valid_trial	expected	FALSE	1392	7.23849684089437
s02	104	36:45:54	0.75	0.1833333	Choose the square with 54 dots	30	Crisp	Numeric	RtoL	Large	-0.5	-0.5	0.5	0.5	valid_trial	expected	FALSE	2682	7.89431806384162
s02	105	06:15:24	-0.75	0.4875	Choose a square with many dots	30	Vague	Verbal	RtoL	Large	0.5	0.5	0.5	0.5	valid_trial	expected	FALSE	585	6.37161184723186
s02	106	16:25:34	-0.25	0.3123529	Choose a square with many dots	30	Vague	Verbal	RtoL	Large	0.5	0.5	0.5	0.5	valid_trial	expected	FALSE	1306	7.17472430983638
s02	107	26:35:44	0.25	0.2308442	Choose the square with 26 dots	30	Crisp	Numeric	RtoL	Small	-0.5	-0.5	0.5	-0.5	valid_trial	borderline	TRUE	1030	6.93731408122368
s02	108	36:45:54	0.75	0.1833333	Choose a square with about 40 dots	34	Vague	Numeric	RtoL	Small	0.5	-0.5	0.5	-0.5	valid_trial	expected	FALSE	1286	7.15929190479756
s02	109	06:15:24	-0.75	0.4875	Choose a square with few dots	29	Vague	Verbal	RtoL	Small	0.5	0.5	0.5	-0.5	valid_trial	expected	FALSE	1767	7.4770384723197
s02	110	16:25:34	-0.25	0.3123529	Choose the square with the most dots	36	Crisp	Verbal	LtoR	Large	-0.5	0.5	-0.5	0.5	valid_trial	expected	FALSE	975	6.88243747099785
s02	111	26:35:44	0.25	0.2308442	Choose the square with 26 dots	30	Crisp	Numeric	LtoR	Small	-0.5	-0.5	-0.5	-0.5	valid_trial	borderline	TRUE	1444	7.27517231945277
s02	112	36:45:54	0.75	0.1833333	Choose the square with the most dots	36	Crisp	Verbal	RtoL	Large	-0.5	0.5	0.5	0.5	valid_trial	expected	FALSE	1554	7.34858753092759
s02	113	06:15:24	-0.75	0.4875	Choose a square with about 20 dots	34	Vague	Numeric	RtoL	Large	0.5	-0.5	0.5	0.5	valid_trial	borderline	TRUE	1157	7.05358572719368
s02	114	16:25:34	-0.25	0.3123529	Choose the square with 16 dots	30	Crisp	Numeric	RtoL	Small	-0.5	-0.5	0.5	-0.5	valid_trial	expected	FALSE	1610	7.38398945797851
s02	115	26:35:44	0.25	0.2308442	Choose a square with about 40 dots	34	Vague	Numeric	RtoL	Large	0.5	-0.5	0.5	0.5	valid_trial	expected	FALSE	1337	7.19818357710194
s02	116	36:45:54	0.75	0.1833333	Choose a square with few dots	29	Vague	Verbal	RtoL	Small	0.5	0.5	0.5	-0.5	valid_trial	extreme	FALSE	1841	7.51806418123308
s02	117	06:15:24	-0.75	0.4875	Choose the square with the fewest dots	38	Crisp	Verbal	LtoR	Small	-0.5	0.5	-0.5	-0.5	valid_trial	expected	FALSE	1896	7.54750168281497
s02	118	16:25:34	-0.25	0.3123529	Choose a square with few dots	29	Vague	Verbal	LtoR	Small	0.5	0.5	-0.5	-0.5	valid_trial	extreme	FALSE	1273	7.14913159855741
s02	119	26:35:44	0.25	0.2308442	Choose a square with about 30 dots	34	Vague	Numeric	LtoR	Small	0.5	-0.5	-0.5	-0.5	valid_trial	borderline	TRUE	1135	7.0343879299155
s02	120	36:45:54	0.75	0.1833333	Choose a square with about 40 dots	34	Vague	Numeric	LtoR	Small	0.5	-0.5	-0.5	-0.5	valid_trial	expected	FALSE	1291	7.16317239084664
s02	121	06:15:24	-0.75	0.4875	Choose the square with the fewest dots	38	Crisp	Verbal	RtoL	Small	-0.5	0.5	0.5	-0.5	valid_trial	expected	FALSE	1143	7.04141166379481
s02	122	16:25:34	-0.25	0.3123529	Choose the square with the most dots	36	Crisp	Verbal	RtoL	Large	-0.5	0.5	0.5	0.5	valid_trial	expected	FALSE	760	6.63331843328038
s02	123	26:35:44	0.25	0.2308442	Choose the square with 44 dots	30	Crisp	Numeric	RtoL	Large	-0.5	-0.5	0.5	0.5	valid_trial	expected	FALSE	2446	7.80220931624712
s02	124	36:45:54	0.75	0.1833333	Choose the square with 54 dots	30	Crisp	Numeric	LtoR	Large	-0.5	-0.5	-0.5	0.5	valid_trial	expected	FALSE	655	6.48463523563525
s02	125	06:15:24	-0.75	0.4875	Choose the square with 6 dots	29	Crisp	Numeric	LtoR	Small	-0.5	-0.5	-0.5	-0.5	valid_trial	expected	FALSE	1558	7.35115822643069
s02	126	16:25:34	-0.25	0.3123529	Choose a square with many dots	30	Vague	Verbal	LtoR	Large	0.5	0.5	-0.5	0.5	valid_trial	expected	FALSE	1048	6.95463886488099
s02	127	26:35:44	0.25	0.2308442	Choose the square with the fewest dots	38	Crisp	Verbal	LtoR	Small	-0.5	0.5	-0.5	-0.5	valid_trial	expected	FALSE	1380	7.22983877815125
s02	128	36:45:54	0.75	0.1833333	Choose the square with 36 dots	30	Crisp	Numeric	LtoR	Small	-0.5	-0.5	-0.5	-0.5	valid_trial	expected	FALSE	1317	7.18311170174328
s02	129	06:15:24	-0.75	0.4875	Choose a square with about 10 dots	34	Vague	Numeric	RtoL	Small	0.5	-0.5	0.5	-0.5	valid_trial	borderline	TRUE	710	6.56526497003536
s02	130	16:25:34	-0.25	0.3123529	Choose a square with about 20 dots	34	Vague	Numeric	RtoL	Small	0.5	-0.5	0.5	-0.5	valid_trial	expected	FALSE	753	6.62406522779989
s02	131	26:35:44	0.25	0.2308442	Choose a square with many dots	30	Vague	Verbal	RtoL	Large	0.5	0.5	0.5	0.5	valid_trial	expected	FALSE	450	6.10924758276437
s02	132	36:45:54	0.75	0.1833333	Choose a square with about 50 dots	34	Vague	Numeric	LtoR	Large	0.5	-0.5	-0.5	0.5	valid_trial	borderline	TRUE	907	6.81014245011514
s02	133	06:15:24	-0.75	0.4875	Choose the square with 6 dots	29	Crisp	Numeric	RtoL	Small	-0.5	-0.5	0.5	-0.5	valid_trial	expected	FALSE	713	6.5694814204143
s02	134	16:25:34	-0.25	0.3123529	Choose a square with many dots	30	Vague	Verbal	RtoL	Large	0.5	0.5	0.5	0.5	valid_trial	expected	FALSE	574	6.35262939631957
s02	135	26:35:44	0.25	0.2308442	Choose a square with few dots	29	Vague	Verbal	LtoR	Small	0.5	0.5	-0.5	-0.5	valid_trial	expected	FALSE	1150	7.0475172213573
s02	136	36:45:54	0.75	0.1833333	Choose a square with many dots	30	Vague	Verbal	LtoR	Large	0.5	0.5	-0.5	0.5	valid_trial	expected	FALSE	621	6.43133108193348
s02	137	06:15:24	-0.75	0.4875	Choose the square with the fewest dots	38	Crisp	Verbal	RtoL	Small	-0.5	0.5	0.5	-0.5	valid_trial	borderline	TRUE	876	6.77536609093639
s02	138	16:25:34	-0.25	0.3123529	Choose the square with the fewest dots	38	Crisp	Verbal	RtoL	Small	-0.5	0.5	0.5	-0.5	valid_trial	expected	FALSE	1821	7.50714107972761
s02	139	26:35:44	0.25	0.2308442	Choose the square with the most dots	36	Crisp	Verbal	RtoL	Large	-0.5	0.5	0.5	0.5	valid_trial	expected	FALSE	1850	7.52294091807237
s02	140	36:45:54	0.75	0.1833333	Choose a square with few dots	29	Vague	Verbal	RtoL	Small	0.5	0.5	0.5	-0.5	valid_trial	borderline	TRUE	1488	7.30518821539304
s02	141	06:15:24	-0.75	0.4875	Choose a square with many dots	30	Vague	Verbal	RtoL	Large	0.5	0.5	0.5	0.5	valid_trial	expected	FALSE	1512	7.32118855673948
s02	142	16:25:34	-0.25	0.3123529	Choose a square with few dots	29	Vague	Verbal	RtoL	Small	0.5	0.5	0.5	-0.5	valid_trial	expected	FALSE	1093	6.99668148817654
s02	143	26:35:44	0.25	0.2308442	Choose the square with 26 dots	30	Crisp	Numeric	LtoR	Small	-0.5	-0.5	-0.5	-0.5	valid_trial	expected	FALSE	1277	7.15226885603254
s02	144	36:45:54	0.75	0.1833333	Choose the square with 54 dots	30	Crisp	Numeric	LtoR	Large	-0.5	-0.5	-0.5	0.5	valid_trial	expected	FALSE	1531	7.33367639565768
s02	145	06:15:24	-0.75	0.4875	Choose a square with few dots	29	Vague	Verbal	LtoR	Small	0.5	0.5	-0.5	-0.5	valid_trial	expected	FALSE	1238	7.12125245324454
s02	146	16:25:34	-0.25	0.3123529	Choose the square with the most dots	36	Crisp	Verbal	LtoR	Large	-0.5	0.5	-0.5	0.5	valid_trial	borderline	TRUE	1203	7.09257371597468
s02	147	26:35:44	0.25	0.2308442	Choose a square with about 40 dots	34	Vague	Numeric	RtoL	Large	0.5	-0.5	0.5	0.5	valid_trial	extreme	FALSE	1590	7.37148929521428
s02	148	36:45:54	0.75	0.1833333	Choose a square with about 50 dots	34	Vague	Numeric	RtoL	Large	0.5	-0.5	0.5	0.5	valid_trial	borderline	TRUE	841	6.73459165997295
s02	149	06:15:24	-0.75	0.4875	Choose the square with 24 dots	30	Crisp	Numeric	RtoL	Large	-0.5	-0.5	0.5	0.5	valid_trial	expected	FALSE	1306	7.17472430983638
s02	150	16:25:34	-0.25	0.3123529	Choose the square with the fewest dots	38	Crisp	Verbal	LtoR	Small	-0.5	0.5	-0.5	-0.5	valid_trial	expected	FALSE	982	6.88959130835447
s02	151	26:35:44	0.25	0.2308442	Choose the square with 26 dots	30	Crisp	Numeric	RtoL	Small	-0.5	-0.5	0.5	-0.5	valid_trial	borderline	TRUE	910	6.8134445995109
s02	152	36:45:54	0.75	0.1833333	Choose the square with the most dots	36	Crisp	Verbal	RtoL	Large	-0.5	0.5	0.5	0.5	valid_trial	expected	FALSE	790	6.67203294546107
s02	153	06:15:24	-0.75	0.4875	Choose a square with about 20 dots	34	Vague	Numeric	LtoR	Large	0.5	-0.5	-0.5	0.5	valid_trial	expected	FALSE	1696	7.43602781635185
s02	154	16:25:34	-0.25	0.3123529	Choose a square with about 20 dots	34	Vague	Numeric	LtoR	Small	0.5	-0.5	-0.5	-0.5	valid_trial	expected	FALSE	1819	7.50604217851812
s02	155	26:35:44	0.25	0.2308442	Choose a square with few dots	29	Vague	Verbal	RtoL	Small	0.5	0.5	0.5	-0.5	valid_trial	expected	FALSE	697	6.54678541076052
s02	156	36:45:54	0.75	0.1833333	Choose a square with about 40 dots	34	Vague	Numeric	LtoR	Small	0.5	-0.5	-0.5	-0.5	valid_trial	expected	FALSE	819	6.70808408385307
s02	157	06:15:24	-0.75	0.4875	Choose a square with about 10 dots	34	Vague	Numeric	LtoR	Small	0.5	-0.5	-0.5	-0.5	valid_trial	borderline	TRUE	1346	7.20489251020467
s02	158	16:25:34	-0.25	0.3123529	Choose the square with 16 dots	30	Crisp	Numeric	LtoR	Small	-0.5	-0.5	-0.5	-0.5	valid_trial	borderline	TRUE	1673	7.42237370098682
s02	159	26:35:44	0.25	0.2308442	Choose the square with the most dots	36	Crisp	Verbal	LtoR	Large	-0.5	0.5	-0.5	0.5	valid_trial	extreme	FALSE	2824	7.94590959861313
s02	160	36:45:54	0.75	0.1833333	Choose a square with many dots	30	Vague	Verbal	RtoL	Large	0.5	0.5	0.5	0.5	valid_trial	extreme	FALSE	1659	7.41397029019044
s02	161	06:15:24	-0.75	0.4875	Choose a square with about 20 dots	34	Vague	Numeric	RtoL	Large	0.5	-0.5	0.5	0.5	valid_trial	expected	FALSE	1058	6.96413561241824
s02	162	16:25:34	-0.25	0.3123529	Choose the square with 34 dots	30	Crisp	Numeric	LtoR	Large	-0.5	-0.5	-0.5	0.5	valid_trial	borderline	TRUE	972	6.87935580446044
s02	163	26:35:44	0.25	0.2308442	Choose a square with about 30 dots	34	Vague	Numeric	LtoR	Small	0.5	-0.5	-0.5	-0.5	valid_trial	borderline	TRUE	1912	7.55590509361135
s02	164	36:45:54	0.75	0.1833333	Choose the square with 36 dots	30	Crisp	Numeric	LtoR	Small	-0.5	-0.5	-0.5	-0.5	valid_trial	expected	FALSE	1525	7.32974968904151
s02	165	06:15:24	-0.75	0.4875	Choose the square with the fewest dots	38	Crisp	Verbal	LtoR	Small	-0.5	0.5	-0.5	-0.5	valid_trial	expected	FALSE	973	6.880384082186
s02	166	16:25:34	-0.25	0.3123529	Choose the square with 16 dots	30	Crisp	Numeric	RtoL	Small	-0.5	-0.5	0.5	-0.5	valid_trial	expected	FALSE	1111	7.01301578963963
s02	167	26:35:44	0.25	0.2308442	Choose the square with 44 dots	30	Crisp	Numeric	RtoL	Large	-0.5	-0.5	0.5	0.5	valid_trial	borderline	TRUE	1777	7.48268182815465
s02	168	36:45:54	0.75	0.1833333	Choose the square with the fewest dots	38	Crisp	Verbal	RtoL	Small	-0.5	0.5	0.5	-0.5	valid_trial	extreme	FALSE	2179	7.68662133494462
s02	169	06:15:24	-0.75	0.4875	Choose a square with few dots	29	Vague	Verbal	RtoL	Small	0.5	0.5	0.5	-0.5	valid_trial	expected	FALSE	837	6.72982407048948
s02	170	16:25:34	-0.25	0.3123529	Choose a square with about 30 dots	34	Vague	Numeric	RtoL	Large	0.5	-0.5	0.5	0.5	valid_trial	borderline	TRUE	2075	7.6377164326648
s02	171	26:35:44	0.25	0.2308442	Choose a square with about 40 dots	34	Vague	Numeric	LtoR	Large	0.5	-0.5	-0.5	0.5	valid_trial	borderline	TRUE	1401	7.24494154633701
s02	172	36:45:54	0.75	0.1833333	Choose the square with the fewest dots	38	Crisp	Verbal	LtoR	Small	-0.5	0.5	-0.5	-0.5	valid_trial	expected	FALSE	1300	7.17011954344963
s02	173	06:15:24	-0.75	0.4875	Choose the square with the most dots	36	Crisp	Verbal	LtoR	Large	-0.5	0.5	-0.5	0.5	valid_trial	expected	FALSE	1562	7.35372233039963
s02	174	16:25:34	-0.25	0.3123529	Choose the square with the most dots	36	Crisp	Verbal	RtoL	Large	-0.5	0.5	0.5	0.5	valid_trial	expected	FALSE	1781	7.48493028328966
s02	175	26:35:44	0.25	0.2308442	Choose a square with many dots	30	Vague	Verbal	LtoR	Large	0.5	0.5	-0.5	0.5	valid_trial	borderline	TRUE	1823	7.50823877467866
s02	176	36:45:54	0.75	0.1833333	Choose the square with 54 dots	30	Crisp	Numeric	RtoL	Large	-0.5	-0.5	0.5	0.5	valid_trial	expected	FALSE	1131	7.03085747611612
s02	177	06:15:24	-0.75	0.4875	Choose the square with the most dots	36	Crisp	Verbal	RtoL	Large	-0.5	0.5	0.5	0.5	valid_trial	expected	FALSE	1122	7.02286808608264
s02	178	16:25:34	-0.25	0.3123529	Choose a square with about 30 dots	34	Vague	Numeric	LtoR	Large	0.5	-0.5	-0.5	0.5	valid_trial	borderline	TRUE	3307	8.10379671298179
s02	179	26:35:44	0.25	0.2308442	Choose the square with the fewest dots	38	Crisp	Verbal	RtoL	Small	-0.5	0.5	0.5	-0.5	valid_trial	expected	FALSE	955	6.86171134048073
s02	180	36:45:54	0.75	0.1833333	Choose a square with about 40 dots	34	Vague	Numeric	RtoL	Small	0.5	-0.5	0.5	-0.5	valid_trial	extreme	FALSE	892	6.79346613258001
s02	181	06:15:24	-0.75	0.4875	Choose a square with many dots	30	Vague	Verbal	LtoR	Large	0.5	0.5	-0.5	0.5	valid_trial	expected	FALSE	1681	7.42714413340862
s02	182	16:25:34	-0.25	0.3123529	Choose a square with few dots	29	Vague	Verbal	LtoR	Small	0.5	0.5	-0.5	-0.5	valid_trial	expected	FALSE	1158	7.05444965813294
s02	183	26:35:44	0.25	0.2308442	Choose the square with the fewest dots	38	Crisp	Verbal	LtoR	Small	-0.5	0.5	-0.5	-0.5	valid_trial	expected	FALSE	1240	7.12286665859908
s02	184	36:45:54	0.75	0.1833333	Choose the square with the most dots	36	Crisp	Verbal	LtoR	Large	-0.5	0.5	-0.5	0.5	valid_trial	expected	FALSE	1346	7.20489251020467
s02	185	06:15:24	-0.75	0.4875	Choose the square with 6 dots	29	Crisp	Numeric	LtoR	Small	-0.5	-0.5	-0.5	-0.5	valid_trial	expected	FALSE	1170	7.0647590277918
s02	186	16:25:34	-0.25	0.3123529	Choose the square with 34 dots	30	Crisp	Numeric	RtoL	Large	-0.5	-0.5	0.5	0.5	valid_trial	borderline	TRUE	1727	7.45414107814668
s02	187	26:35:44	0.25	0.2308442	Choose the square with 44 dots	30	Crisp	Numeric	LtoR	Large	-0.5	-0.5	-0.5	0.5	valid_trial	expected	FALSE	1927	7.56371966841437
s02	188	36:45:54	0.75	0.1833333	Choose a square with few dots	29	Vague	Verbal	LtoR	Small	0.5	0.5	-0.5	-0.5	valid_trial	expected	FALSE	924	6.82871207164168
s02	189	06:15:24	-0.75	0.4875	Choose the square with 24 dots	30	Crisp	Numeric	LtoR	Large	-0.5	-0.5	-0.5	0.5	valid_trial	borderline	TRUE	1231	7.11558212618445
s02	190	16:25:34	-0.25	0.3123529	Choose a square with many dots	30	Vague	Verbal	LtoR	Large	0.5	0.5	-0.5	0.5	valid_trial	expected	FALSE	2030	7.61579107203583
s02	191	26:35:44	0.25	0.2308442	Choose a square with about 30 dots	34	Vague	Numeric	RtoL	Small	0.5	-0.5	0.5	-0.5	valid_trial	borderline	TRUE	889	6.7900972355139
s02	192	36:45:54	0.75	0.1833333	Choose the square with 36 dots	30	Crisp	Numeric	RtoL	Small	-0.5	-0.5	0.5	-0.5	valid_trial	expected	FALSE	2383	7.77611547709874
s02	193	06:15:24	-0.75	0.4875	Choose the square with 24 dots	30	Crisp	Numeric	LtoR	Large	-0.5	-0.5	-0.5	0.5	valid_trial	borderline	TRUE	727	6.58892647753352
s02	194	16:25:34	-0.25	0.3123529	Choose a square with few dots	29	Vague	Verbal	LtoR	Small	0.5	0.5	-0.5	-0.5	valid_trial	borderline	TRUE	1334	7.19593722647557
s02	195	26:35:44	0.25	0.2308442	Choose the square with the fewest dots	38	Crisp	Verbal	RtoL	Small	-0.5	0.5	0.5	-0.5	valid_trial	expected	FALSE	995	6.90274273715859
s02	196	36:45:54	0.75	0.1833333	Choose the square with 54 dots	30	Crisp	Numeric	RtoL	Large	-0.5	-0.5	0.5	0.5	valid_trial	borderline	TRUE	1684	7.42892719480227
s02	197	06:15:24	-0.75	0.4875	Choose the square with 6 dots	29	Crisp	Numeric	LtoR	Small	-0.5	-0.5	-0.5	-0.5	valid_trial	expected	FALSE	734	6.59850902861452
s02	198	16:25:34	-0.25	0.3123529	Choose a square with few dots	29	Vague	Verbal	RtoL	Small	0.5	0.5	0.5	-0.5	valid_trial	expected	FALSE	754	6.62539236800796
s02	199	26:35:44	0.25	0.2308442	Choose a square with about 40 dots	34	Vague	Numeric	RtoL	Large	0.5	-0.5	0.5	0.5	valid_trial	borderline	TRUE	1629	7.39572160860205
s02	200	36:45:54	0.75	0.1833333	Choose the square with 54 dots	30	Crisp	Numeric	LtoR	Large	-0.5	-0.5	-0.5	0.5	valid_trial	borderline	TRUE	1583	7.36707705988101
s02	201	06:15:24	-0.75	0.4875	Choose the square with 6 dots	29	Crisp	Numeric	RtoL	Small	-0.5	-0.5	0.5	-0.5	valid_trial	expected	FALSE	811	6.69826805411541
s02	202	16:25:34	-0.25	0.3123529	Choose the square with 34 dots	30	Crisp	Numeric	RtoL	Large	-0.5	-0.5	0.5	0.5	valid_trial	borderline	TRUE	1547	7.34407285057307
s02	203	26:35:44	0.25	0.2308442	Choose a square with many dots	30	Vague	Verbal	RtoL	Large	0.5	0.5	0.5	0.5	valid_trial	expected	FALSE	1128	7.028201432058
s02	204	36:45:54	0.75	0.1833333	Choose a square with about 40 dots	34	Vague	Numeric	RtoL	Small	0.5	-0.5	0.5	-0.5	valid_trial	extreme	FALSE	1158	7.05444965813294
s02	205	06:15:24	-0.75	0.4875	Choose a square with about 10 dots	34	Vague	Numeric	RtoL	Small	0.5	-0.5	0.5	-0.5	valid_trial	borderline	TRUE	1119	7.02019070831193
s02	206	16:25:34	-0.25	0.3123529	Choose a square with about 30 dots	34	Vague	Numeric	LtoR	Large	0.5	-0.5	-0.5	0.5	valid_trial	borderline	TRUE	1068	6.97354301952014
s02	207	26:35:44	0.25	0.2308442	Choose a square with about 30 dots	34	Vague	Numeric	RtoL	Small	0.5	-0.5	0.5	-0.5	valid_trial	expected	FALSE	1367	7.22037383672395
s02	208	36:45:54	0.75	0.1833333	Choose the square with 36 dots	30	Crisp	Numeric	LtoR	Small	-0.5	-0.5	-0.5	-0.5	valid_trial	expected	FALSE	1146	7.04403289727469
s02	209	06:15:24	-0.75	0.4875	Choose a square with few dots	29	Vague	Verbal	RtoL	Small	0.5	0.5	0.5	-0.5	valid_trial	expected	FALSE	1273	7.14913159855741
s02	210	16:25:34	-0.25	0.3123529	Choose a square with many dots	30	Vague	Verbal	RtoL	Large	0.5	0.5	0.5	0.5	valid_trial	expected	FALSE	1863	7.52994337060159
s02	211	26:35:44	0.25	0.2308442	Choose the square with the most dots	36	Crisp	Verbal	RtoL	Large	-0.5	0.5	0.5	0.5	valid_trial	expected	FALSE	1599	7.37713371283395
s02	212	36:45:54	0.75	0.1833333	Choose a square with few dots	29	Vague	Verbal	RtoL	Small	0.5	0.5	0.5	-0.5	valid_trial	expected	FALSE	1318	7.18387071506245
s02	213	06:15:24	-0.75	0.4875	Choose a square with few dots	29	Vague	Verbal	LtoR	Small	0.5	0.5	-0.5	-0.5	valid_trial	expected	FALSE	1358	7.21376830811864
s02	214	16:25:34	-0.25	0.3123529	Choose a square with about 20 dots	34	Vague	Numeric	LtoR	Small	0.5	-0.5	-0.5	-0.5	valid_trial	expected	FALSE	1461	7.2868764117507
s02	215	26:35:44	0.25	0.2308442	Choose a square with few dots	29	Vague	Verbal	LtoR	Small	0.5	0.5	-0.5	-0.5	valid_trial	extreme	FALSE	2857	7.95752740223077
s02	216	36:45:54	0.75	0.1833333	Choose a square with about 50 dots	34	Vague	Numeric	RtoL	Large	0.5	-0.5	0.5	0.5	valid_trial	expected	FALSE	1092	6.99576615630485
s02	217	06:15:24	-0.75	0.4875	Choose a square with about 20 dots	34	Vague	Numeric	RtoL	Large	0.5	-0.5	0.5	0.5	valid_trial	borderline	TRUE	679	6.5206211275587
s02	218	16:25:34	-0.25	0.3123529	Choose the square with 16 dots	30	Crisp	Numeric	LtoR	Small	-0.5	-0.5	-0.5	-0.5	valid_trial	expected	FALSE	1407	7.24921505711439
s02	219	26:35:44	0.25	0.2308442	Choose a square with about 30 dots	34	Vague	Numeric	LtoR	Small	0.5	-0.5	-0.5	-0.5	valid_trial	expected	FALSE	1203	7.09257371597468
s02	220	36:45:54	0.75	0.1833333	Choose a square with few dots	29	Vague	Verbal	LtoR	Small	0.5	0.5	-0.5	-0.5	valid_trial	expected	FALSE	1542	7.34083555412327
s02	221	06:15:24	-0.75	0.4875	Choose the square with 24 dots	30	Crisp	Numeric	RtoL	Large	-0.5	-0.5	0.5	0.5	valid_trial	expected	FALSE	1429	7.26473017792987
s02	222	16:25:34	-0.25	0.3123529	Choose the square with 16 dots	30	Crisp	Numeric	RtoL	Small	-0.5	-0.5	0.5	-0.5	valid_trial	borderline	TRUE	1201	7.09090982207998
s02	223	26:35:44	0.25	0.2308442	Choose a square with few dots	29	Vague	Verbal	RtoL	Small	0.5	0.5	0.5	-0.5	valid_trial	expected	FALSE	1167	7.06219163228656
s02	224	36:45:54	0.75	0.1833333	Choose a square with about 40 dots	34	Vague	Numeric	LtoR	Small	0.5	-0.5	-0.5	-0.5	valid_trial	expected	FALSE	1668	7.41938058291869
s02	225	06:15:24	-0.75	0.4875	Choose the square with the fewest dots	38	Crisp	Verbal	RtoL	Small	-0.5	0.5	0.5	-0.5	valid_trial	expected	FALSE	1335	7.19668657083435
s02	226	16:25:34	-0.25	0.3123529	Choose a square with about 20 dots	34	Vague	Numeric	RtoL	Small	0.5	-0.5	0.5	-0.5	valid_trial	expected	FALSE	860	6.75693238924755
s02	227	26:35:44	0.25	0.2308442	Choose the square with the most dots	36	Crisp	Verbal	LtoR	Large	-0.5	0.5	-0.5	0.5	valid_trial	expected	FALSE	2404	7.7848892956551
s02	228	36:45:54	0.75	0.1833333	Choose a square with many dots	30	Vague	Verbal	LtoR	Large	0.5	0.5	-0.5	0.5	valid_trial	expected	FALSE	701	6.55250788703459
s02	229	06:15:24	-0.75	0.4875	Choose a square with many dots	30	Vague	Verbal	LtoR	Large	0.5	0.5	-0.5	0.5	valid_trial	expected	FALSE	1978	7.58984151218266
s02	230	16:25:34	-0.25	0.3123529	Choose the square with 34 dots	30	Crisp	Numeric	LtoR	Large	-0.5	-0.5	-0.5	0.5	valid_trial	expected	FALSE	1896	7.54750168281497
s02	231	26:35:44	0.25	0.2308442	Choose the square with the fewest dots	38	Crisp	Verbal	LtoR	Small	-0.5	0.5	-0.5	-0.5	valid_trial	expected	FALSE	1432	7.26682734752059
s02	232	36:45:54	0.75	0.1833333	Choose the square with the fewest dots	38	Crisp	Verbal	RtoL	Small	-0.5	0.5	0.5	-0.5	valid_trial	expected	FALSE	1396	7.24136628332232
s02	233	06:15:24	-0.75	0.4875	Choose a square with about 10 dots	34	Vague	Numeric	LtoR	Small	0.5	-0.5	-0.5	-0.5	valid_trial	expected	FALSE	1120	7.02108396428914
s02	234	16:25:34	-0.25	0.3123529	Choose the square with the fewest dots	38	Crisp	Verbal	RtoL	Small	-0.5	0.5	0.5	-0.5	valid_trial	expected	FALSE	2376	7.77317368048254
s02	235	26:35:44	0.25	0.2308442	Choose the square with 26 dots	30	Crisp	Numeric	RtoL	Small	-0.5	-0.5	0.5	-0.5	valid_trial	borderline	TRUE	918	6.82219739062049
s02	236	36:45:54	0.75	0.1833333	Choose the square with the most dots	36	Crisp	Verbal	LtoR	Large	-0.5	0.5	-0.5	0.5	valid_trial	expected	FALSE	1789	7.48941208350872
s02	237	06:15:24	-0.75	0.4875	Choose the square with the most dots	36	Crisp	Verbal	LtoR	Large	-0.5	0.5	-0.5	0.5	valid_trial	expected	FALSE	1771	7.47929963778283
s02	238	16:25:34	-0.25	0.3123529	Choose the square with the most dots	36	Crisp	Verbal	LtoR	Large	-0.5	0.5	-0.5	0.5	valid_trial	expected	FALSE	1320	7.18538701558042
s02	239	26:35:44	0.25	0.2308442	Choose the square with 44 dots	30	Crisp	Numeric	LtoR	Large	-0.5	-0.5	-0.5	0.5	valid_trial	extreme	FALSE	1478	7.29844510150815
s02	240	36:45:54	0.75	0.1833333	Choose a square with about 50 dots	34	Vague	Numeric	LtoR	Large	0.5	-0.5	-0.5	0.5	valid_trial	expected	FALSE	2399	7.78280726283969
s02	241	06:15:24	-0.75	0.4875	Choose a square with many dots	30	Vague	Verbal	RtoL	Large	0.5	0.5	0.5	0.5	valid_trial	expected	FALSE	742	6.60934924316738
s02	242	16:25:34	-0.25	0.3123529	Choose the square with the fewest dots	38	Crisp	Verbal	LtoR	Small	-0.5	0.5	-0.5	-0.5	valid_trial	expected	FALSE	1064	6.96979066990159
s02	243	26:35:44	0.25	0.2308442	Choose the square with 44 dots	30	Crisp	Numeric	RtoL	Large	-0.5	-0.5	0.5	0.5	valid_trial	expected	FALSE	1247	7.12849594568004
s02	244	36:45:54	0.75	0.1833333	Choose the square with the fewest dots	38	Crisp	Verbal	LtoR	Small	-0.5	0.5	-0.5	-0.5	valid_trial	expected	FALSE	1646	7.40610338123702
s02	245	06:15:24	-0.75	0.4875	Choose the square with the fewest dots	38	Crisp	Verbal	LtoR	Small	-0.5	0.5	-0.5	-0.5	valid_trial	expected	FALSE	1231	7.11558212618445
s02	246	16:25:34	-0.25	0.3123529	Choose the square with the most dots	36	Crisp	Verbal	RtoL	Large	-0.5	0.5	0.5	0.5	valid_trial	expected	FALSE	1750	7.46737106691756
s02	247	26:35:44	0.25	0.2308442	Choose a square with about 40 dots	34	Vague	Numeric	LtoR	Large	0.5	-0.5	-0.5	0.5	valid_trial	expected	FALSE	1733	7.45760928971561
s02	248	36:45:54	0.75	0.1833333	Choose the square with 36 dots	30	Crisp	Numeric	RtoL	Small	-0.5	-0.5	0.5	-0.5	valid_trial	expected	FALSE	1548	7.34471905414967
s02	249	06:15:24	-0.75	0.4875	Choose a square with about 20 dots	34	Vague	Numeric	LtoR	Large	0.5	-0.5	-0.5	0.5	valid_trial	borderline	TRUE	1512	7.32118855673948
s02	250	16:25:34	-0.25	0.3123529	Choose a square with many dots	30	Vague	Verbal	LtoR	Large	0.5	0.5	-0.5	0.5	valid_trial	expected	FALSE	702	6.55393340402581
s02	251	26:35:44	0.25	0.2308442	Choose a square with many dots	30	Vague	Verbal	LtoR	Large	0.5	0.5	-0.5	0.5	valid_trial	expected	FALSE	1197	7.08757370555797
s02	252	36:45:54	0.75	0.1833333	Choose a square with many dots	30	Vague	Verbal	RtoL	Large	0.5	0.5	0.5	0.5	valid_trial	expected	FALSE	677	6.51767127291227
s02	253	06:15:24	-0.75	0.4875	Choose the square with the most dots	36	Crisp	Verbal	RtoL	Large	-0.5	0.5	0.5	0.5	valid_trial	expected	FALSE	580	6.36302810354046
s02	254	16:25:34	-0.25	0.3123529	Choose a square with about 30 dots	34	Vague	Numeric	RtoL	Large	0.5	-0.5	0.5	0.5	valid_trial	expected	FALSE	1806	7.49886973397693
s02	255	26:35:44	0.25	0.2308442	Choose the square with 26 dots	30	Crisp	Numeric	LtoR	Small	-0.5	-0.5	-0.5	-0.5	valid_trial	borderline	TRUE	796	6.67959918584438
s02	256	36:45:54	0.75	0.1833333	Choose the square with the most dots	36	Crisp	Verbal	RtoL	Large	-0.5	0.5	0.5	0.5	valid_trial	expected	FALSE	1464	7.28892769452126
s03	1	06:15:24	-0.75	0.4875	Choose the square with the fewest dots	38	Crisp	Verbal	RtoL	Small	-0.5	0.5	0.5	-0.5	valid_trial	expected	FALSE	669	6.50578406012823
s03	2	16:25:34	-0.25	0.3123529	Choose a square with about 30 dots	34	Vague	Numeric	RtoL	Large	0.5	-0.5	0.5	0.5	valid_trial	expected	FALSE	898	6.8001700683022
s03	3	26:35:44	0.25	0.2308442	Choose a square with about 40 dots	34	Vague	Numeric	LtoR	Large	0.5	-0.5	-0.5	0.5	valid_trial	borderline	TRUE	1424	7.26122509197192
s03	4	36:45:54	0.75	0.1833333	Choose the square with 54 dots	30	Crisp	Numeric	RtoL	Large	-0.5	-0.5	0.5	0.5	valid_trial	expected	FALSE	1178	7.07157336421153
s03	5	06:15:24	-0.75	0.4875	Choose the square with the most dots	36	Crisp	Verbal	RtoL	Large	-0.5	0.5	0.5	0.5	valid_trial	expected	FALSE	820	6.7093043402583
s03	6	16:25:34	-0.25	0.3123529	Choose a square with about 30 dots	34	Vague	Numeric	LtoR	Large	0.5	-0.5	-0.5	0.5	valid_trial	expected	FALSE	1132	7.03174125876313
s03	7	26:35:44	0.25	0.2308442	Choose the square with the fewest dots	38	Crisp	Verbal	RtoL	Small	-0.5	0.5	0.5	-0.5	valid_trial	expected	FALSE	1038	6.94505106372583
s03	8	36:45:54	0.75	0.1833333	Choose the square with the fewest dots	38	Crisp	Verbal	LtoR	Small	-0.5	0.5	-0.5	-0.5	valid_trial	expected	FALSE	925	6.82979373751242
s03	9	06:15:24	-0.75	0.4875	Choose a square with about 10 dots	34	Vague	Numeric	RtoL	Small	0.5	-0.5	0.5	-0.5	valid_trial	borderline	TRUE	1040	6.94697599213542
s03	10	16:25:34	-0.25	0.3123529	Choose a square with many dots	30	Vague	Verbal	LtoR	Large	0.5	0.5	-0.5	0.5	valid_trial	expected	FALSE	1123	7.02375895473844
s03	11	26:35:44	0.25	0.2308442	Choose a square with many dots	30	Vague	Verbal	LtoR	Large	0.5	0.5	-0.5	0.5	valid_trial	expected	FALSE	975	6.88243747099785
s03	12	36:45:54	0.75	0.1833333	Choose the square with the most dots	36	Crisp	Verbal	LtoR	Large	-0.5	0.5	-0.5	0.5	valid_trial	expected	FALSE	850	6.74523634948436
s03	13	06:15:24	-0.75	0.4875	Choose a square with many dots	30	Vague	Verbal	LtoR	Large	0.5	0.5	-0.5	0.5	valid_trial	expected	FALSE	983	6.89060912014717
s03	14	16:25:34	-0.25	0.3123529	Choose the square with 34 dots	30	Crisp	Numeric	RtoL	Large	-0.5	-0.5	0.5	0.5	valid_trial	expected	FALSE	1184	7.07665381544395
s03	15	26:35:44	0.25	0.2308442	Choose a square with few dots	29	Vague	Verbal	RtoL	Small	0.5	0.5	0.5	-0.5	valid_trial	expected	FALSE	1148	7.04577657687951
s03	16	36:45:54	0.75	0.1833333	Choose the square with the fewest dots	38	Crisp	Verbal	RtoL	Small	-0.5	0.5	0.5	-0.5	valid_trial	expected	FALSE	1511	7.32052696227274
s03	17	06:15:24	-0.75	0.4875	Choose a square with about 20 dots	34	Vague	Numeric	LtoR	Large	0.5	-0.5	-0.5	0.5	valid_trial	expected	FALSE	1242	7.12447826249342
s03	18	16:25:34	-0.25	0.3123529	Choose a square with few dots	29	Vague	Verbal	LtoR	Small	0.5	0.5	-0.5	-0.5	valid_trial	expected	FALSE	886	6.78671695060508
s03	19	26:35:44	0.25	0.2308442	Choose the square with 44 dots	30	Crisp	Numeric	LtoR	Large	-0.5	-0.5	-0.5	0.5	valid_trial	borderline	TRUE	1534	7.3356339819272
s03	20	36:45:54	0.75	0.1833333	Choose the square with 54 dots	30	Crisp	Numeric	LtoR	Large	-0.5	-0.5	-0.5	0.5	valid_trial	expected	FALSE	1226	7.11151211649616
s03	21	06:15:24	-0.75	0.4875	Choose a square with about 20 dots	34	Vague	Numeric	RtoL	Large	0.5	-0.5	0.5	0.5	valid_trial	expected	FALSE	1018	6.92559519711047
s03	22	16:25:34	-0.25	0.3123529	Choose the square with the fewest dots	38	Crisp	Verbal	LtoR	Small	-0.5	0.5	-0.5	-0.5	valid_trial	expected	FALSE	1358	7.21376830811864
s03	23	26:35:44	0.25	0.2308442	Choose a square with many dots	30	Vague	Verbal	RtoL	Large	0.5	0.5	0.5	0.5	valid_trial	expected	FALSE	1248	7.12929754892937
s03	24	36:45:54	0.75	0.1833333	Choose a square with about 50 dots	34	Vague	Numeric	RtoL	Large	0.5	-0.5	0.5	0.5	valid_trial	borderline	TRUE	1689	7.4318919168078
s03	25	06:15:24	-0.75	0.4875	Choose the square with 24 dots	30	Crisp	Numeric	RtoL	Large	-0.5	-0.5	0.5	0.5	valid_trial	expected	FALSE	1006	6.91373735065968
s03	26	16:25:34	-0.25	0.3123529	Choose the square with 16 dots	30	Crisp	Numeric	LtoR	Small	-0.5	-0.5	-0.5	-0.5	valid_trial	borderline	TRUE	1544	7.34213173058472
s03	27	26:35:44	0.25	0.2308442	Choose a square with about 30 dots	34	Vague	Numeric	RtoL	Small	0.5	-0.5	0.5	-0.5	valid_trial	borderline	TRUE	1904	7.55171221535131
s03	28	36:45:54	0.75	0.1833333	Choose the square with the most dots	36	Crisp	Verbal	RtoL	Large	-0.5	0.5	0.5	0.5	valid_trial	expected	FALSE	1139	7.03790596344718
s03	29	06:15:24	-0.75	0.4875	Choose the square with the fewest dots	38	Crisp	Verbal	LtoR	Small	-0.5	0.5	-0.5	-0.5	valid_trial	expected	FALSE	941	6.84694313958538
s03	30	16:25:34	-0.25	0.3123529	Choose a square with about 20 dots	34	Vague	Numeric	LtoR	Small	0.5	-0.5	-0.5	-0.5	valid_trial	borderline	TRUE	1300	7.17011954344963
s03	31	26:35:44	0.25	0.2308442	Choose the square with 26 dots	30	Crisp	Numeric	RtoL	Small	-0.5	-0.5	0.5	-0.5	valid_trial	borderline	TRUE	2629	7.87435882472988
s03	32	36:45:54	0.75	0.1833333	Choose a square with about 50 dots	34	Vague	Numeric	LtoR	Large	0.5	-0.5	-0.5	0.5	valid_trial	expected	FALSE	1233	7.11720550316434
s03	33	06:15:24	-0.75	0.4875	Choose a square with few dots	29	Vague	Verbal	RtoL	Small	0.5	0.5	0.5	-0.5	valid_trial	expected	FALSE	1091	6.99484998583307
s03	34	16:25:34	-0.25	0.3123529	Choose the square with the most dots	36	Crisp	Verbal	RtoL	Large	-0.5	0.5	0.5	0.5	valid_trial	expected	FALSE	1503	7.31521838975297
s03	35	26:35:44	0.25	0.2308442	Choose a square with few dots	29	Vague	Verbal	LtoR	Small	0.5	0.5	-0.5	-0.5	valid_trial	expected	FALSE	1335	7.19668657083435
s03	36	36:45:54	0.75	0.1833333	Choose a square with about 40 dots	34	Vague	Numeric	LtoR	Small	0.5	-0.5	-0.5	-0.5	valid_trial	expected	FALSE	1969	7.58528107863913
s03	37	06:15:24	-0.75	0.4875	Choose a square with few dots	29	Vague	Verbal	LtoR	Small	0.5	0.5	-0.5	-0.5	valid_trial	expected	FALSE	925	6.82979373751242
s03	38	16:25:34	-0.25	0.3123529	Choose the square with the most dots	36	Crisp	Verbal	LtoR	Large	-0.5	0.5	-0.5	0.5	valid_trial	expected	FALSE	911	6.81454289725996
s03	39	26:35:44	0.25	0.2308442	Choose the square with the most dots	36	Crisp	Verbal	LtoR	Large	-0.5	0.5	-0.5	0.5	valid_trial	expected	FALSE	748	6.61740297797448
s03	40	36:45:54	0.75	0.1833333	Choose a square with about 40 dots	34	Vague	Numeric	RtoL	Small	0.5	-0.5	0.5	-0.5	valid_trial	expected	FALSE	2049	7.6251071482389
s03	41	06:15:24	-0.75	0.4875	Choose a square with about 10 dots	34	Vague	Numeric	LtoR	Small	0.5	-0.5	-0.5	-0.5	valid_trial	borderline	TRUE	1557	7.350516171834
s03	42	16:25:34	-0.25	0.3123529	Choose a square with about 20 dots	34	Vague	Numeric	RtoL	Small	0.5	-0.5	0.5	-0.5	valid_trial	expected	FALSE	1710	7.44424864949671
s03	43	26:35:44	0.25	0.2308442	Choose the square with 26 dots	30	Crisp	Numeric	LtoR	Small	-0.5	-0.5	-0.5	-0.5	valid_trial	expected	FALSE	1274	7.14991683613211
s03	44	36:45:54	0.75	0.1833333	Choose a square with few dots	29	Vague	Verbal	LtoR	Small	0.5	0.5	-0.5	-0.5	valid_trial	expected	FALSE	1690	7.43248380791712
s03	45	06:15:24	-0.75	0.4875	Choose the square with the most dots	36	Crisp	Verbal	LtoR	Large	-0.5	0.5	-0.5	0.5	valid_trial	expected	FALSE	1043	6.94985645500077
s03	46	16:25:34	-0.25	0.3123529	Choose the square with the fewest dots	38	Crisp	Verbal	RtoL	Small	-0.5	0.5	0.5	-0.5	valid_trial	expected	FALSE	1638	7.40123126441302
s03	47	26:35:44	0.25	0.2308442	Choose the square with the fewest dots	38	Crisp	Verbal	LtoR	Small	-0.5	0.5	-0.5	-0.5	valid_trial	expected	FALSE	958	6.86484777797086
s03	48	36:45:54	0.75	0.1833333	Choose the square with 36 dots	30	Crisp	Numeric	RtoL	Small	-0.5	-0.5	0.5	-0.5	valid_trial	expected	FALSE	1099	7.00215595440362
s03	49	06:15:24	-0.75	0.4875	Choose the square with 24 dots	30	Crisp	Numeric	LtoR	Large	-0.5	-0.5	-0.5	0.5	valid_trial	expected	FALSE	1729	7.45529848568329
s03	50	16:25:34	-0.25	0.3123529	Choose a square with few dots	29	Vague	Verbal	RtoL	Small	0.5	0.5	0.5	-0.5	valid_trial	expected	FALSE	1386	7.23417717974985
s03	51	26:35:44	0.25	0.2308442	Choose the square with 44 dots	30	Crisp	Numeric	RtoL	Large	-0.5	-0.5	0.5	0.5	valid_trial	borderline	TRUE	1374	7.22548147278229
s03	52	36:45:54	0.75	0.1833333	Choose the square with 36 dots	30	Crisp	Numeric	LtoR	Small	-0.5	-0.5	-0.5	-0.5	valid_trial	expected	FALSE	1225	7.11069612297883
s03	53	06:15:24	-0.75	0.4875	Choose a square with many dots	30	Vague	Verbal	RtoL	Large	0.5	0.5	0.5	0.5	valid_trial	expected	FALSE	1297	7.16780918431644
s03	54	16:25:34	-0.25	0.3123529	Choose the square with 16 dots	30	Crisp	Numeric	RtoL	Small	-0.5	-0.5	0.5	-0.5	valid_trial	borderline	TRUE	1496	7.31055015853442
s03	55	26:35:44	0.25	0.2308442	Choose a square with about 40 dots	34	Vague	Numeric	RtoL	Large	0.5	-0.5	0.5	0.5	valid_trial	borderline	TRUE	2244	7.71601526664259
s03	56	36:45:54	0.75	0.1833333	Choose a square with many dots	30	Vague	Verbal	LtoR	Large	0.5	0.5	-0.5	0.5	valid_trial	expected	FALSE	987	6.89467003943348
s03	57	06:15:24	-0.75	0.4875	Choose the square with 6 dots	29	Crisp	Numeric	RtoL	Small	-0.5	-0.5	0.5	-0.5	valid_trial	expected	FALSE	1300	7.17011954344963
s03	58	16:25:34	-0.25	0.3123529	Choose the square with 34 dots	30	Crisp	Numeric	LtoR	Large	-0.5	-0.5	-0.5	0.5	valid_trial	expected	FALSE	1966	7.58375630070711
s03	59	26:35:44	0.25	0.2308442	Choose the square with the most dots	36	Crisp	Verbal	RtoL	Large	-0.5	0.5	0.5	0.5	valid_trial	expected	FALSE	1553	7.34794382314869
s03	60	36:45:54	0.75	0.1833333	Choose a square with few dots	29	Vague	Verbal	RtoL	Small	0.5	0.5	0.5	-0.5	valid_trial	expected	FALSE	1801	7.49609734517596
s03	61	06:15:24	-0.75	0.4875	Choose the square with 6 dots	29	Crisp	Numeric	LtoR	Small	-0.5	-0.5	-0.5	-0.5	valid_trial	expected	FALSE	982	6.88959130835447
s03	62	16:25:34	-0.25	0.3123529	Choose a square with many dots	30	Vague	Verbal	RtoL	Large	0.5	0.5	0.5	0.5	valid_trial	expected	FALSE	2869	7.96171881598136
s03	63	26:35:44	0.25	0.2308442	Choose a square with about 30 dots	34	Vague	Numeric	LtoR	Small	0.5	-0.5	-0.5	-0.5	valid_trial	borderline	TRUE	1271	7.14755927118945
s03	64	36:45:54	0.75	0.1833333	Choose a square with many dots	30	Vague	Verbal	RtoL	Large	0.5	0.5	0.5	0.5	valid_trial	expected	FALSE	898	6.8001700683022
s03	65	06:15:24	-0.75	0.4875	Choose the square with 6 dots	29	Crisp	Numeric	LtoR	Small	-0.5	-0.5	-0.5	-0.5	valid_trial	expected	FALSE	1284	7.15773548424991
s03	66	16:25:34	-0.25	0.3123529	Choose the square with the fewest dots	38	Crisp	Verbal	LtoR	Small	-0.5	0.5	-0.5	-0.5	valid_trial	expected	FALSE	804	6.68959926917897
s03	67	26:35:44	0.25	0.2308442	Choose a square with about 30 dots	34	Vague	Numeric	RtoL	Small	0.5	-0.5	0.5	-0.5	valid_trial	expected	FALSE	2383	7.77611547709874
s03	68	36:45:54	0.75	0.1833333	Choose a square with many dots	30	Vague	Verbal	LtoR	Large	0.5	0.5	-0.5	0.5	valid_trial	expected	FALSE	637	6.45676965557216
s03	69	06:15:24	-0.75	0.4875	Choose a square with few dots	29	Vague	Verbal	LtoR	Small	0.5	0.5	-0.5	-0.5	valid_trial	expected	FALSE	678	6.5191472879404
s03	70	16:25:34	-0.25	0.3123529	Choose a square with many dots	30	Vague	Verbal	RtoL	Large	0.5	0.5	0.5	0.5	valid_trial	expected	FALSE	674	6.51323011091231
s03	71	26:35:44	0.25	0.2308442	Choose the square with 44 dots	30	Crisp	Numeric	LtoR	Large	-0.5	-0.5	-0.5	0.5	valid_trial	expected	FALSE	1480	7.29979736675816
s03	72	36:45:54	0.75	0.1833333	Choose a square with about 40 dots	34	Vague	Numeric	RtoL	Small	0.5	-0.5	0.5	-0.5	valid_trial	borderline	TRUE	1887	7.54274354536855
s03	73	06:15:24	-0.75	0.4875	Choose the square with the fewest dots	38	Crisp	Verbal	RtoL	Small	-0.5	0.5	0.5	-0.5	valid_trial	expected	FALSE	741	6.60800062529609
s03	74	16:25:34	-0.25	0.3123529	Choose the square with the fewest dots	38	Crisp	Verbal	RtoL	Small	-0.5	0.5	0.5	-0.5	valid_trial	expected	FALSE	1144	7.04228617193974
s03	75	26:35:44	0.25	0.2308442	Choose the square with the fewest dots	38	Crisp	Verbal	LtoR	Small	-0.5	0.5	-0.5	-0.5	valid_trial	expected	FALSE	808	6.69456205852109
s03	76	36:45:54	0.75	0.1833333	Choose the square with 54 dots	30	Crisp	Numeric	RtoL	Large	-0.5	-0.5	0.5	0.5	valid_trial	expected	FALSE	997	6.90475076996184
s03	77	06:15:24	-0.75	0.4875	Choose the square with the fewest dots	38	Crisp	Verbal	LtoR	Small	-0.5	0.5	-0.5	-0.5	valid_trial	expected	FALSE	671	6.50876913697168
s03	78	16:25:34	-0.25	0.3123529	Choose a square with few dots	29	Vague	Verbal	LtoR	Small	0.5	0.5	-0.5	-0.5	valid_trial	expected	FALSE	790	6.67203294546107
s03	79	26:35:44	0.25	0.2308442	Choose the square with the most dots	36	Crisp	Verbal	LtoR	Large	-0.5	0.5	-0.5	0.5	valid_trial	expected	FALSE	1040	6.94697599213542
s03	80	36:45:54	0.75	0.1833333	Choose a square with few dots	29	Vague	Verbal	LtoR	Small	0.5	0.5	-0.5	-0.5	valid_trial	extreme	FALSE	1845	7.52023455647463
s03	81	06:15:24	-0.75	0.4875	Choose a square with about 10 dots	34	Vague	Numeric	LtoR	Small	0.5	-0.5	-0.5	-0.5	valid_trial	borderline	TRUE	1173	7.06731984865348
s03	82	16:25:34	-0.25	0.3123529	Choose a square with about 30 dots	34	Vague	Numeric	LtoR	Large	0.5	-0.5	-0.5	0.5	valid_trial	expected	FALSE	1922	7.56112158953024
s03	83	26:35:44	0.25	0.2308442	Choose a square with about 40 dots	34	Vague	Numeric	RtoL	Large	0.5	-0.5	0.5	0.5	valid_trial	expected	FALSE	656	6.48616078894409
s03	84	36:45:54	0.75	0.1833333	Choose a square with many dots	30	Vague	Verbal	RtoL	Large	0.5	0.5	0.5	0.5	valid_trial	expected	FALSE	775	6.65286302935335
s03	85	06:15:24	-0.75	0.4875	Choose a square with about 10 dots	34	Vague	Numeric	RtoL	Small	0.5	-0.5	0.5	-0.5	valid_trial	expected	FALSE	1727	7.45414107814668
s03	86	16:25:34	-0.25	0.3123529	Choose a square with about 20 dots	34	Vague	Numeric	RtoL	Small	0.5	-0.5	0.5	-0.5	valid_trial	expected	FALSE	1220	7.1066061377273
s03	87	26:35:44	0.25	0.2308442	Choose the square with 26 dots	30	Crisp	Numeric	RtoL	Small	-0.5	-0.5	0.5	-0.5	valid_trial	expected	FALSE	2297	7.7393592026891
s03	88	36:45:54	0.75	0.1833333	Choose a square with few dots	29	Vague	Verbal	RtoL	Small	0.5	0.5	0.5	-0.5	valid_trial	expected	FALSE	1848	7.52185925220163
s03	89	06:15:24	-0.75	0.4875	Choose the square with 24 dots	30	Crisp	Numeric	RtoL	Large	-0.5	-0.5	0.5	0.5	valid_trial	expected	FALSE	1267	7.14440718032114
s03	90	16:25:34	-0.25	0.3123529	Choose the square with 34 dots	30	Crisp	Numeric	LtoR	Large	-0.5	-0.5	-0.5	0.5	valid_trial	expected	FALSE	2192	7.69256964806791
s03	91	26:35:44	0.25	0.2308442	Choose the square with 44 dots	30	Crisp	Numeric	RtoL	Large	-0.5	-0.5	0.5	0.5	valid_trial	expected	FALSE	746	6.61472560020376
s03	92	36:45:54	0.75	0.1833333	Choose the square with the most dots	36	Crisp	Verbal	RtoL	Large	-0.5	0.5	0.5	0.5	valid_trial	expected	FALSE	903	6.80572255341699
s03	93	06:15:24	-0.75	0.4875	Choose the square with the most dots	36	Crisp	Verbal	LtoR	Large	-0.5	0.5	-0.5	0.5	valid_trial	expected	FALSE	1637	7.40062057737113
s03	94	16:25:34	-0.25	0.3123529	Choose a square with few dots	29	Vague	Verbal	RtoL	Small	0.5	0.5	0.5	-0.5	valid_trial	expected	FALSE	973	6.880384082186
s03	95	26:35:44	0.25	0.2308442	Choose a square with about 30 dots	34	Vague	Numeric	LtoR	Small	0.5	-0.5	-0.5	-0.5	valid_trial	extreme	FALSE	1768	7.47760424319759
s03	96	36:45:54	0.75	0.1833333	Choose a square with about 50 dots	34	Vague	Numeric	RtoL	Large	0.5	-0.5	0.5	0.5	valid_trial	expected	FALSE	1332	7.19443685110033
s03	97	06:15:24	-0.75	0.4875	Choose the square with the most dots	36	Crisp	Verbal	RtoL	Large	-0.5	0.5	0.5	0.5	valid_trial	expected	FALSE	957	6.86380339145295
s03	98	16:25:34	-0.25	0.3123529	Choose a square with about 20 dots	34	Vague	Numeric	LtoR	Small	0.5	-0.5	-0.5	-0.5	valid_trial	borderline	TRUE	1264	7.1420365747068
s03	99	26:35:44	0.25	0.2308442	Choose a square with many dots	30	Vague	Verbal	RtoL	Large	0.5	0.5	0.5	0.5	valid_trial	expected	FALSE	1098	7.00124562206948
s03	100	36:45:54	0.75	0.1833333	Choose a square with about 50 dots	34	Vague	Numeric	LtoR	Large	0.5	-0.5	-0.5	0.5	valid_trial	expected	FALSE	782	6.66185474054531
s03	101	06:15:24	-0.75	0.4875	Choose the square with 24 dots	30	Crisp	Numeric	LtoR	Large	-0.5	-0.5	-0.5	0.5	valid_trial	expected	FALSE	1416	7.25559127425367
s03	102	16:25:34	-0.25	0.3123529	Choose a square with many dots	30	Vague	Verbal	LtoR	Large	0.5	0.5	-0.5	0.5	valid_trial	expected	FALSE	1921	7.56060116276856
s03	103	26:35:44	0.25	0.2308442	Choose a square with about 40 dots	34	Vague	Numeric	LtoR	Large	0.5	-0.5	-0.5	0.5	valid_trial	borderline	TRUE	1268	7.14519613499717
s03	104	36:45:54	0.75	0.1833333	Choose the square with 36 dots	30	Crisp	Numeric	LtoR	Small	-0.5	-0.5	-0.5	-0.5	valid_trial	expected	FALSE	1661	7.41517510961329
s03	105	06:15:24	-0.75	0.4875	Choose a square with few dots	29	Vague	Verbal	RtoL	Small	0.5	0.5	0.5	-0.5	valid_trial	expected	FALSE	751	6.62140565176413
s03	106	16:25:34	-0.25	0.3123529	Choose the square with the most dots	36	Crisp	Verbal	RtoL	Large	-0.5	0.5	0.5	0.5	valid_trial	expected	FALSE	745	6.61338421837956
s03	107	26:35:44	0.25	0.2308442	Choose a square with few dots	29	Vague	Verbal	LtoR	Small	0.5	0.5	-0.5	-0.5	valid_trial	expected	FALSE	1353	7.21007962817079
s03	108	36:45:54	0.75	0.1833333	Choose the square with 36 dots	30	Crisp	Numeric	RtoL	Small	-0.5	-0.5	0.5	-0.5	valid_trial	borderline	TRUE	1328	7.19142933003638
s03	109	06:15:24	-0.75	0.4875	Choose a square with about 20 dots	34	Vague	Numeric	RtoL	Large	0.5	-0.5	0.5	0.5	valid_trial	expected	FALSE	1051	6.95749737087695
s03	110	16:25:34	-0.25	0.3123529	Choose the square with the most dots	36	Crisp	Verbal	LtoR	Large	-0.5	0.5	-0.5	0.5	valid_trial	expected	FALSE	864	6.76157276880406
s03	111	26:35:44	0.25	0.2308442	Choose the square with the most dots	36	Crisp	Verbal	RtoL	Large	-0.5	0.5	0.5	0.5	valid_trial	expected	FALSE	700	6.5510803350434
s03	112	36:45:54	0.75	0.1833333	Choose the square with the fewest dots	38	Crisp	Verbal	RtoL	Small	-0.5	0.5	0.5	-0.5	valid_trial	expected	FALSE	1398	7.24279792279376
s03	113	06:15:24	-0.75	0.4875	Choose a square with about 20 dots	34	Vague	Numeric	LtoR	Large	0.5	-0.5	-0.5	0.5	valid_trial	borderline	TRUE	1683	7.42833319419081
s03	114	16:25:34	-0.25	0.3123529	Choose the square with 16 dots	30	Crisp	Numeric	RtoL	Small	-0.5	-0.5	0.5	-0.5	valid_trial	expected	FALSE	1195	7.08590146436561
s03	115	26:35:44	0.25	0.2308442	Choose a square with few dots	29	Vague	Verbal	RtoL	Small	0.5	0.5	0.5	-0.5	valid_trial	expected	FALSE	1279	7.15383380157884
