"Subject" "Trial" "Item" "c_Itm" "Vagueness" "c_Vag" "Selection" "c_Sel" "Instruction" "Order" "Quantity" "RT" "RT_log" "switchResponse"
"1" "s01" 1 "06:15:24" -0.75 "Vague" 0.5 "Comparison" -0.5 "'Choose a square with far fewer than 20 dots'" "RtoL" "Small" 996 6.9037472575846 "Expected"
"2" "s01" 2 "16:25:34" -0.25 "Crisp" -0.5 "Matching" 0.5 "'Choose a square with 34 dots'" "LtoR" "Large" 1332 7.19443685110033 "Expected"
"3" "s01" 3 "26:35:44" 0.25 "Vague" 0.5 "Comparison" -0.5 "'Choose a square with far fewer than 40 dots'" "LtoR" "Small" 1083 6.98749024700099 "Expected"
"4" "s01" 4 "36:45:54" 0.75 "Vague" 0.5 "Comparison" -0.5 "'Choose a square with far more than 40 dots'" "LtoR" "Large" 1234 7.11801620446533 "Expected"
"5" "s01" 5 "06:15:24" -0.75 "Crisp" -0.5 "Matching" 0.5 "'Choose a square with 24 dots'" "RtoL" "Large" 1369 7.22183582528845 "Expected"
"6" "s01" 6 "16:25:34" -0.25 "Crisp" -0.5 "Comparison" -0.5 "'Choose a square with more than 20 dots'" "LtoR" "Large" 971 6.87832646829133 "Expected"
"7" "s01" 7 "26:35:44" 0.25 "Vague" 0.5 "Comparison" -0.5 "'Choose a square with far more than 30 dots'" "RtoL" "Large" 966 6.87316383421252 "Expected"
"8" "s01" 8 "36:45:54" 0.75 "Crisp" -0.5 "Matching" 0.5 "'Choose a square with 36 dots'" "RtoL" "Small" 1656 7.4121603349452 "Near"
"9" "s01" 9 "06:15:24" -0.75 "Vague" 0.5 "Comparison" -0.5 "'Choose a square with far more than 10 dots'" "LtoR" "Large" 1017 6.92461239604856 "Expected"
"10" "s01" 10 "16:25:34" -0.25 "Vague" 0.5 "Comparison" -0.5 "'Choose a square with far fewer than 30 dots'" "RtoL" "Small" 1033 6.94022246911964 "Expected"
"11" "s01" 11 "26:35:44" 0.25 "Crisp" -0.5 "Matching" 0.5 "'Choose a square with 26 dots'" "LtoR" "Small" 2329 7.75319426988434 "Far"
"12" "s01" 12 "36:45:54" 0.75 "Crisp" -0.5 "Comparison" -0.5 "'Choose a square with more than 40 dots'" "LtoR" "Large" 990 6.89770494312864 "Expected"
"13" "s01" 13 "06:15:24" -0.75 "Crisp" -0.5 "Comparison" -0.5 "'Choose a square with fewer than 20 dots'" "LtoR" "Small" 945 6.85118492749374 "Expected"
"14" "s01" 14 "16:25:34" -0.25 "Crisp" -0.5 "Comparison" -0.5 "'Choose a square with more than 20 dots'" "RtoL" "Large" 1022 6.92951677076365 "Expected"
"15" "s01" 15 "26:35:44" 0.25 "Vague" 0.5 "Matching" 0.5 "'Choose a square with about 30 dots'" "RtoL" "Small" 1709 7.44366368311559 "Far"
"16" "s01" 16 "36:45:54" 0.75 "Crisp" -0.5 "Matching" 0.5 "'Choose a square with 36 dots'" "LtoR" "Small" 1151 7.04838640872188 "Far"
"17" "s01" 17 "06:15:24" -0.75 "Vague" 0.5 "Matching" 0.5 "'Choose a square with about 10 dots'" "RtoL" "Small" 3558 8.17695386822578 "Expected"
"18" "s01" 18 "16:25:34" -0.25 "Vague" 0.5 "Comparison" -0.5 "'Choose a square with far fewer than 30 dots'" "LtoR" "Small" 927 6.83195356556585 "Expected"
"19" "s01" 19 "26:35:44" 0.25 "Crisp" -0.5 "Comparison" -0.5 "'Choose a square with more than 30 dots'" "RtoL" "Large" 914 6.81783057145415 "Expected"
"20" "s01" 20 "36:45:54" 0.75 "Vague" 0.5 "Comparison" -0.5 "'Choose a square with far more than 40 dots'" "RtoL" "Large" 1090 6.99393297522319 "Expected"
"21" "s01" 21 "06:15:24" -0.75 "Crisp" -0.5 "Matching" 0.5 "'Choose a square with 24 dots'" "LtoR" "Large" 1177 7.07072410726028 "Expected"
"22" "s01" 22 "16:25:34" -0.25 "Crisp" -0.5 "Comparison" -0.5 "'Choose a square with fewer than 30 dots'" "LtoR" "Small" 865 6.76272950693188 "Expected"
"23" "s01" 23 "26:35:44" 0.25 "Vague" 0.5 "Comparison" -0.5 "'Choose a square with far more than 30 dots'" "LtoR" "Large" 894 6.79570577517351 "Expected"
"24" "s01" 24 "36:45:54" 0.75 "Crisp" -0.5 "Comparison" -0.5 "'Choose a square with fewer than 50 dots'" "RtoL" "Small" 1041 6.94793706861497 "Expected"
"25" "s01" 25 "06:15:24" -0.75 "Vague" 0.5 "Comparison" -0.5 "'Choose a square with far more than 10 dots'" "RtoL" "Large" 856 6.75227037614174 "Expected"
"26" "s01" 26 "16:25:34" -0.25 "Vague" 0.5 "Matching" 0.5 "'Choose a square with about 30 dots'" "RtoL" "Large" 972 6.87935580446044 "Expected"
"27" "s01" 27 "26:35:44" 0.25 "Crisp" -0.5 "Comparison" -0.5 "'Choose a square with more than 30 dots'" "LtoR" "Large" 908 6.81124437860129 "Expected"
"28" "s01" 28 "36:45:54" 0.75 "Crisp" -0.5 "Matching" 0.5 "'Choose a square with 54 dots'" "RtoL" "Large" 1117 7.0184017990692 "Expected"
"29" "s01" 29 "06:15:24" -0.75 "Crisp" -0.5 "Comparison" -0.5 "'Choose a square with fewer than 20 dots'" "RtoL" "Small" 794 6.67708346124714 "Expected"
"30" "s01" 30 "16:25:34" -0.25 "Crisp" -0.5 "Matching" 0.5 "'Choose a square with 34 dots'" "RtoL" "Large" 882 6.78219205600679 "Expected"
"31" "s01" 31 "26:35:44" 0.25 "Crisp" -0.5 "Matching" 0.5 "'Choose a square with 26 dots'" "RtoL" "Small" 1172 7.06646697013696 "Far"
"32" "s01" 32 "36:45:54" 0.75 "Vague" 0.5 "Matching" 0.5 "'Choose a square with about 50 dots'" "LtoR" "Large" 817 6.70563909486 "Expected"
"33" "s01" 33 "06:15:24" -0.75 "Vague" 0.5 "Matching" 0.5 "'Choose a square with about 20 dots'" "RtoL" "Large" 760 6.63331843328038 "Expected"
"34" "s01" 34 "16:25:34" -0.25 "Crisp" -0.5 "Matching" 0.5 "'Choose a square with 16 dots'" "RtoL" "Small" 1103 7.0057890192535 "Expected"
"35" "s01" 35 "26:35:44" 0.25 "Vague" 0.5 "Matching" 0.5 "'Choose a square with about 40 dots'" "LtoR" "Large" 1041 6.94793706861497 "Expected"
"36" "s01" 36 "36:45:54" 0.75 "Vague" 0.5 "Comparison" -0.5 "'Choose a square with far fewer than 50 dots'" "RtoL" "Small" 1510 7.31986492980897 "Expected"
"37" "s01" 37 "06:15:24" -0.75 "Vague" 0.5 "Comparison" -0.5 "'Choose a square with far fewer than 20 dots'" "LtoR" "Small" 612 6.41673228251233 "Expected"
"38" "s01" 38 "16:25:34" -0.25 "Crisp" -0.5 "Matching" 0.5 "'Choose a square with 16 dots'" "LtoR" "Small" 734 6.59850902861452 "Expected"
"39" "s01" 39 "26:35:44" 0.25 "Crisp" -0.5 "Comparison" -0.5 "'Choose a square with fewer than 40 dots'" "RtoL" "Small" 1030 6.93731408122368 "Expected"
"40" "s01" 40 "36:45:54" 0.75 "Crisp" -0.5 "Matching" 0.5 "'Choose a square with 54 dots'" "LtoR" "Large" 747 6.61606518513282 "Expected"
"41" "s01" 41 "06:15:24" -0.75 "Crisp" -0.5 "Matching" 0.5 "'Choose a square with 6 dots'" "RtoL" "Small" 1262 7.14045304310116 "Expected"
"42" "s01" 42 "16:25:34" -0.25 "Vague" 0.5 "Comparison" -0.5 "'Choose a square with far more than 20 dots'" "RtoL" "Large" 779 6.65801104587075 "Expected"
"43" "s01" 43 "26:35:44" 0.25 "Vague" 0.5 "Matching" 0.5 "'Choose a square with about 40 dots'" "RtoL" "Large" 712 6.56807791141198 "Expected"
"44" "s01" 44 "36:45:54" 0.75 "Vague" 0.5 "Matching" 0.5 "'Choose a square with about 50 dots'" "RtoL" "Large" 930 6.8351845861473 "Expected"
"45" "s01" 45 "06:15:24" -0.75 "Crisp" -0.5 "Comparison" -0.5 "'Choose a square with more than 10 dots'" "LtoR" "Large" 1111 7.01301578963963 "Expected"
"46" "s01" 46 "16:25:34" -0.25 "Vague" 0.5 "Comparison" -0.5 "'Choose a square with far more than 20 dots'" "LtoR" "Large" 643 6.46614472423762 "Expected"
"47" "s01" 47 "26:35:44" 0.25 "Crisp" -0.5 "Comparison" -0.5 "'Choose a square with fewer than 40 dots'" "LtoR" "Small" 665 6.49978704065585 "Expected"
"48" "s01" 48 "36:45:54" 0.75 "Vague" 0.5 "Comparison" -0.5 "'Choose a square with far fewer than 50 dots'" "LtoR" "Small" 737 6.60258789218934 "Expected"
"49" "s01" 49 "06:15:24" -0.75 "Vague" 0.5 "Matching" 0.5 "'Choose a square with about 10 dots'" "LtoR" "Small" 695 6.54391184556479 "Expected"
"50" "s01" 50 "16:25:34" -0.25 "Crisp" -0.5 "Comparison" -0.5 "'Choose a square with fewer than 30 dots'" "RtoL" "Small" 814 6.70196036600254 "Expected"
"51" "s01" 51 "26:35:44" 0.25 "Vague" 0.5 "Matching" 0.5 "'Choose a square with about 30 dots'" "LtoR" "Small" 1395 7.24064969425547 "Far"
"52" "s01" 52 "36:45:54" 0.75 "Vague" 0.5 "Matching" 0.5 "'Choose a square with about 40 dots'" "RtoL" "Small" 683 6.52649485957079 "Far"
"53" "s01" 53 "06:15:24" -0.75 "Crisp" -0.5 "Matching" 0.5 "'Choose a square with 6 dots'" "LtoR" "Small" 710 6.56526497003536 "Expected"
"54" "s01" 54 "16:25:34" -0.25 "Vague" 0.5 "Matching" 0.5 "'Choose a square with about 20 dots'" "RtoL" "Small" 1994 7.59789795052178 "Near"
"55" "s01" 55 "26:35:44" 0.25 "Vague" 0.5 "Comparison" -0.5 "'Choose a square with far fewer than 40 dots'" "RtoL" "Small" 887 6.78784498230958 "Expected"
"56" "s01" 56 "36:45:54" 0.75 "Crisp" -0.5 "Comparison" -0.5 "'Choose a square with fewer than 50 dots'" "LtoR" "Small" 1080 6.98471632011827 "Expected"
"57" "s01" 57 "06:15:24" -0.75 "Vague" 0.5 "Matching" 0.5 "'Choose a square with about 20 dots'" "LtoR" "Large" 1309 7.1770187659099 "Expected"
"58" "s01" 58 "16:25:34" -0.25 "Vague" 0.5 "Matching" 0.5 "'Choose a square with about 20 dots'" "LtoR" "Small" 1454 7.28207365809346 "Near"
"59" "s01" 59 "26:35:44" 0.25 "Crisp" -0.5 "Matching" 0.5 "'Choose a square with 44 dots'" "LtoR" "Large" 1252 7.13249755166004 "Expected"
"60" "s01" 60 "36:45:54" 0.75 "Vague" 0.5 "Matching" 0.5 "'Choose a square with about 40 dots'" "LtoR" "Small" 837 6.72982407048948 "Far"
"61" "s01" 61 "06:15:24" -0.75 "Crisp" -0.5 "Comparison" -0.5 "'Choose a square with more than 10 dots'" "RtoL" "Large" 769 6.64509096950564 "Expected"
"62" "s01" 62 "16:25:34" -0.25 "Vague" 0.5 "Matching" 0.5 "'Choose a square with about 30 dots'" "LtoR" "Large" 976 6.88346258641309 "Expected"
"63" "s01" 63 "26:35:44" 0.25 "Crisp" -0.5 "Matching" 0.5 "'Choose a square with 44 dots'" "RtoL" "Large" 706 6.55961523749324 "Expected"
"64" "s01" 64 "36:45:54" 0.75 "Crisp" -0.5 "Comparison" -0.5 "'Choose a square with more than 40 dots'" "RtoL" "Large" 715 6.57228254269401 "Expected"
"65" "s01" 65 "06:15:24" -0.75 "Vague" 0.5 "Comparison" -0.5 "'Choose a square with far fewer than 20 dots'" "LtoR" "Small" 676 6.51619307604296 "Expected"
"66" "s01" 66 "16:25:34" -0.25 "Vague" 0.5 "Matching" 0.5 "'Choose a square with about 30 dots'" "LtoR" "Large" 855 6.75110146893676 "Expected"
"67" "s01" 67 "26:35:44" 0.25 "Vague" 0.5 "Comparison" -0.5 "'Choose a square with far fewer than 40 dots'" "LtoR" "Small" 640 6.46146817635372 "Expected"
"68" "s01" 68 "36:45:54" 0.75 "Crisp" -0.5 "Matching" 0.5 "'Choose a square with 54 dots'" "RtoL" "Large" 693 6.5410299991899 "Expected"
"69" "s01" 69 "06:15:24" -0.75 "Crisp" -0.5 "Comparison" -0.5 "'Choose a square with more than 10 dots'" "LtoR" "Large" 770 6.64639051484773 "Expected"
"70" "s01" 70 "16:25:34" -0.25 "Vague" 0.5 "Comparison" -0.5 "'Choose a square with far more than 20 dots'" "LtoR" "Large" 654 6.4831073514572 "Expected"
"71" "s01" 71 "26:35:44" 0.25 "Crisp" -0.5 "Comparison" -0.5 "'Choose a square with fewer than 40 dots'" "LtoR" "Small" 649 6.47543271670409 "Expected"
"72" "s01" 72 "36:45:54" 0.75 "Crisp" -0.5 "Matching" 0.5 "'Choose a square with 54 dots'" "LtoR" "Large" 658 6.48920493132532 "Expected"
"73" "s01" 73 "06:15:24" -0.75 "Crisp" -0.5 "Comparison" -0.5 "'Choose a square with fewer than 20 dots'" "RtoL" "Small" 662 6.49526555593701 "Expected"
"74" "s01" 74 "16:25:34" -0.25 "Vague" 0.5 "Comparison" -0.5 "'Choose a square with far fewer than 30 dots'" "RtoL" "Small" 705 6.55819780281227 "Expected"
"75" "s01" 75 "26:35:44" 0.25 "Crisp" -0.5 "Comparison" -0.5 "'Choose a square with more than 30 dots'" "RtoL" "Large" 706 6.55961523749324 "Expected"
"76" "s01" 76 "36:45:54" 0.75 "Vague" 0.5 "Comparison" -0.5 "'Choose a square with far more than 40 dots'" "LtoR" "Large" 681 6.52356230614951 "Expected"
"77" "s01" 77 "06:15:24" -0.75 "Crisp" -0.5 "Matching" 0.5 "'Choose a square with 24 dots'" "LtoR" "Large" 671 6.50876913697168 "Expected"
"78" "s01" 78 "16:25:34" -0.25 "Vague" 0.5 "Comparison" -0.5 "'Choose a square with far fewer than 30 dots'" "LtoR" "Small" 833 6.72503364216684 "Expected"
"79" "s01" 79 "26:35:44" 0.25 "Crisp" -0.5 "Matching" 0.5 "'Choose a square with 26 dots'" "LtoR" "Small" 2718 7.90765159471109 "Near"
"80" "s01" 80 "36:45:54" 0.75 "Crisp" -0.5 "Comparison" -0.5 "'Choose a square with more than 40 dots'" "RtoL" "Large" 1047 6.95368421087054 "Expected"
"81" "s01" 81 "06:15:24" -0.75 "Vague" 0.5 "Matching" 0.5 "'Choose a square with about 20 dots'" "RtoL" "Large" 767 6.64248680136726 "Expected"
"82" "s01" 82 "16:25:34" -0.25 "Crisp" -0.5 "Matching" 0.5 "'Choose a square with 16 dots'" "RtoL" "Small" 1312 7.17930796950403 "Expected"
"83" "s01" 83 "26:35:44" 0.25 "Crisp" -0.5 "Matching" 0.5 "'Choose a square with 44 dots'" "RtoL" "Large" 792 6.67456139181443 "Expected"
"84" "s01" 84 "36:45:54" 0.75 "Crisp" -0.5 "Comparison" -0.5 "'Choose a square with fewer than 50 dots'" "RtoL" "Small" 1982 7.59186171488993 "Expected"
"85" "s01" 85 "06:15:24" -0.75 "Crisp" -0.5 "Comparison" -0.5 "'Choose a square with fewer than 20 dots'" "LtoR" "Small" 602 6.40025744530882 "Expected"
"86" "s01" 86 "16:25:34" -0.25 "Crisp" -0.5 "Comparison" -0.5 "'Choose a square with more than 20 dots'" "LtoR" "Large" 840 6.73340189183736 "Expected"
"87" "s01" 87 "26:35:44" 0.25 "Crisp" -0.5 "Comparison" -0.5 "'Choose a square with fewer than 40 dots'" "RtoL" "Small" 789 6.67076632084587 "Expected"
"88" "s01" 88 "36:45:54" 0.75 "Vague" 0.5 "Comparison" -0.5 "'Choose a square with far fewer than 50 dots'" "RtoL" "Small" 1077 6.98193467715639 "Expected"
"89" "s01" 89 "06:15:24" -0.75 "Vague" 0.5 "Matching" 0.5 "'Choose a square with about 10 dots'" "RtoL" "Small" 1733 7.45760928971561 "Expected"
"90" "s01" 90 "16:25:34" -0.25 "Crisp" -0.5 "Matching" 0.5 "'Choose a square with 34 dots'" "LtoR" "Large" 801 6.68586094706836 "Expected"
"91" "s01" 91 "26:35:44" 0.25 "Crisp" -0.5 "Comparison" -0.5 "'Choose a square with more than 30 dots'" "LtoR" "Large" 999 6.90675477864855 "Expected"
"92" "s01" 92 "36:45:54" 0.75 "Vague" 0.5 "Comparison" -0.5 "'Choose a square with far fewer than 50 dots'" "LtoR" "Small" 1813 7.50273821075485 "Near"
"93" "s01" 93 "06:15:24" -0.75 "Crisp" -0.5 "Matching" 0.5 "'Choose a square with 24 dots'" "RtoL" "Large" 945 6.85118492749374 "Expected"
"94" "s01" 94 "16:25:34" -0.25 "Crisp" -0.5 "Matching" 0.5 "'Choose a square with 34 dots'" "RtoL" "Large" 1122 7.02286808608264 "Expected"
"95" "s01" 95 "26:35:44" 0.25 "Vague" 0.5 "Matching" 0.5 "'Choose a square with about 40 dots'" "RtoL" "Large" 1139 7.03790596344718 "Expected"
"96" "s01" 96 "36:45:54" 0.75 "Vague" 0.5 "Matching" 0.5 "'Choose a square with about 50 dots'" "RtoL" "Large" 1369 7.22183582528845 "Expected"
"97" "s01" 97 "06:15:24" -0.75 "Vague" 0.5 "Matching" 0.5 "'Choose a square with about 20 dots'" "LtoR" "Large" 1172 7.06646697013696 "Expected"
"98" "s01" 98 "16:25:34" -0.25 "Vague" 0.5 "Matching" 0.5 "'Choose a square with about 30 dots'" "RtoL" "Large" 806 6.69208374250663 "Expected"
"99" "s01" 99 "26:35:44" 0.25 "Crisp" -0.5 "Matching" 0.5 "'Choose a square with 44 dots'" "LtoR" "Large" 668 6.50428817353665 "Expected"
"100" "s01" 100 "36:45:54" 0.75 "Vague" 0.5 "Matching" 0.5 "'Choose a square with about 40 dots'" "RtoL" "Small" 846 6.74051935960622 "Far"
"101" "s01" 101 "06:15:24" -0.75 "Vague" 0.5 "Comparison" -0.5 "'Choose a square with far more than 10 dots'" "LtoR" "Large" 613 6.41836493593621 "Expected"
"102" "s01" 102 "16:25:34" -0.25 "Crisp" -0.5 "Matching" 0.5 "'Choose a square with 16 dots'" "LtoR" "Small" 967 6.87419849545329 "Expected"
"103" "s01" 103 "26:35:44" 0.25 "Vague" 0.5 "Comparison" -0.5 "'Choose a square with far more than 30 dots'" "LtoR" "Large" 643 6.46614472423762 "Expected"
"104" "s01" 104 "36:45:54" 0.75 "Vague" 0.5 "Comparison" -0.5 "'Choose a square with far more than 40 dots'" "RtoL" "Large" 619 6.4281052726846 "Expected"
"105" "s01" 105 "06:15:24" -0.75 "Crisp" -0.5 "Comparison" -0.5 "'Choose a square with more than 10 dots'" "RtoL" "Large" 820 6.7093043402583 "Expected"
"106" "s01" 106 "16:25:34" -0.25 "Vague" 0.5 "Matching" 0.5 "'Choose a square with about 20 dots'" "RtoL" "Small" 1776 7.48211892355212 "Near"
"107" "s01" 107 "26:35:44" 0.25 "Vague" 0.5 "Matching" 0.5 "'Choose a square with about 30 dots'" "RtoL" "Small" 1381 7.23056315340929 "Far"
"108" "s01" 108 "36:45:54" 0.75 "Crisp" -0.5 "Comparison" -0.5 "'Choose a square with fewer than 50 dots'" "LtoR" "Small" 813 6.70073110954781 "Expected"
"109" "s01" 109 "06:15:24" -0.75 "Vague" 0.5 "Matching" 0.5 "'Choose a square with about 10 dots'" "LtoR" "Small" 645 6.46925031679577 "Expected"
"110" "s01" 110 "16:25:34" -0.25 "Crisp" -0.5 "Comparison" -0.5 "'Choose a square with more than 20 dots'" "RtoL" "Large" 1080 6.98471632011827 "Expected"
"111" "s01" 111 "26:35:44" 0.25 "Vague" 0.5 "Comparison" -0.5 "'Choose a square with far more than 30 dots'" "RtoL" "Large" 832 6.72383244082121 "Expected"
"112" "s01" 112 "36:45:54" 0.75 "Crisp" -0.5 "Matching" 0.5 "'Choose a square with 36 dots'" "LtoR" "Small" 936 6.84161547647759 "Near"
"113" "s01" 113 "06:15:24" -0.75 "Crisp" -0.5 "Matching" 0.5 "'Choose a square with 6 dots'" "RtoL" "Small" 793 6.67582322163485 "Expected"
"114" "s01" 114 "16:25:34" -0.25 "Vague" 0.5 "Comparison" -0.5 "'Choose a square with far more than 20 dots'" "RtoL" "Large" 766 6.64118216974059 "Expected"
"115" "s01" 115 "26:35:44" 0.25 "Crisp" -0.5 "Matching" 0.5 "'Choose a square with 26 dots'" "RtoL" "Small" 1392 7.23849684089437 "Near"
"116" "s01" 116 "36:45:54" 0.75 "Crisp" -0.5 "Comparison" -0.5 "'Choose a square with more than 40 dots'" "LtoR" "Large" 1083 6.98749024700099 "Expected"
"117" "s01" 117 "06:15:24" -0.75 "Crisp" -0.5 "Matching" 0.5 "'Choose a square with 6 dots'" "LtoR" "Small" 591 6.3818160174061 "Expected"
"118" "s01" 118 "16:25:34" -0.25 "Vague" 0.5 "Matching" 0.5 "'Choose a square with about 20 dots'" "LtoR" "Small" 811 6.69826805411541 "Near"
"119" "s01" 119 "26:35:44" 0.25 "Vague" 0.5 "Matching" 0.5 "'Choose a square with about 40 dots'" "LtoR" "Large" 723 6.58340922215876 "Expected"
"120" "s01" 120 "36:45:54" 0.75 "Vague" 0.5 "Matching" 0.5 "'Choose a square with about 50 dots'" "LtoR" "Large" 661 6.49375383985169 "Expected"
"121" "s01" 121 "06:15:24" -0.75 "Vague" 0.5 "Comparison" -0.5 "'Choose a square with far more than 10 dots'" "RtoL" "Large" 1423 7.26052259808985 "Expected"
"122" "s01" 122 "16:25:34" -0.25 "Crisp" -0.5 "Comparison" -0.5 "'Choose a square with fewer than 30 dots'" "RtoL" "Small" 963 6.87005341179813 "Expected"
"123" "s01" 123 "26:35:44" 0.25 "Vague" 0.5 "Matching" 0.5 "'Choose a square with about 30 dots'" "LtoR" "Small" 927 6.83195356556585 "Far"
"124" "s01" 124 "36:45:54" 0.75 "Crisp" -0.5 "Matching" 0.5 "'Choose a square with 36 dots'" "RtoL" "Small" 889 6.7900972355139 "Far"
"125" "s01" 125 "06:15:24" -0.75 "Vague" 0.5 "Comparison" -0.5 "'Choose a square with far fewer than 20 dots'" "RtoL" "Small" 694 6.5424719605068 "Expected"
"126" "s01" 126 "16:25:34" -0.25 "Crisp" -0.5 "Comparison" -0.5 "'Choose a square with fewer than 30 dots'" "LtoR" "Small" 612 6.41673228251233 "Expected"
"127" "s01" 127 "26:35:44" 0.25 "Vague" 0.5 "Comparison" -0.5 "'Choose a square with far fewer than 40 dots'" "RtoL" "Small" 621 6.43133108193348 "Expected"
"128" "s01" 128 "36:45:54" 0.75 "Vague" 0.5 "Matching" 0.5 "'Choose a square with about 40 dots'" "LtoR" "Small" 651 6.47850964220857 "Far"
"129" "s01" 129 "06:15:24" -0.75 "Crisp" -0.5 "Comparison" -0.5 "'Choose a square with fewer than 20 dots'" "RtoL" "Small" 757 6.62936325343745 "Expected"
"130" "s01" 130 "16:25:34" -0.25 "Crisp" -0.5 "Comparison" -0.5 "'Choose a square with more than 20 dots'" "RtoL" "Large" 621 6.43133108193348 "Expected"
"131" "s01" 131 "26:35:44" 0.25 "Vague" 0.5 "Matching" 0.5 "'Choose a square with about 30 dots'" "RtoL" "Small" 805 6.69084227741856 "Far"
"132" "s01" 132 "36:45:54" 0.75 "Vague" 0.5 "Matching" 0.5 "'Choose a square with about 50 dots'" "LtoR" "Large" 736 6.60123011872888 "Expected"
"133" "s01" 133 "06:15:24" -0.75 "Crisp" -0.5 "Matching" 0.5 "'Choose a square with 6 dots'" "RtoL" "Small" 569 6.34388043412633 "Expected"
"134" "s01" 134 "16:25:34" -0.25 "Crisp" -0.5 "Matching" 0.5 "'Choose a square with 34 dots'" "RtoL" "Large" 671 6.50876913697168 "Expected"
"135" "s01" 135 "26:35:44" 0.25 "Vague" 0.5 "Matching" 0.5 "'Choose a square with about 40 dots'" "RtoL" "Large" 636 6.45519856334012 "Expected"
"136" "s01" 136 "36:45:54" 0.75 "Vague" 0.5 "Comparison" -0.5 "'Choose a square with far more than 40 dots'" "LtoR" "Large" 554 6.31716468674728 "Expected"
"137" "s01" 137 "06:15:24" -0.75 "Vague" 0.5 "Comparison" -0.5 "'Choose a square with far fewer than 20 dots'" "LtoR" "Small" 577 6.3578422665081 "Expected"
"138" "s01" 138 "16:25:34" -0.25 "Crisp" -0.5 "Matching" 0.5 "'Choose a square with 16 dots'" "LtoR" "Small" 698 6.54821910276237 "Expected"
"139" "s01" 139 "26:35:44" 0.25 "Vague" 0.5 "Matching" 0.5 "'Choose a square with about 40 dots'" "LtoR" "Large" 565 6.33682573114644 "Expected"
"140" "s01" 140 "36:45:54" 0.75 "Crisp" -0.5 "Matching" 0.5 "'Choose a square with 54 dots'" "RtoL" "Large" 654 6.4831073514572 "Expected"
"141" "s01" 141 "06:15:24" -0.75 "Crisp" -0.5 "Matching" 0.5 "'Choose a square with 24 dots'" "LtoR" "Large" 673 6.51174532964473 "Expected"
"142" "s01" 142 "16:25:34" -0.25 "Vague" 0.5 "Comparison" -0.5 "'Choose a square with far fewer than 30 dots'" "RtoL" "Small" 892 6.79346613258001 "Expected"
"143" "s01" 143 "26:35:44" 0.25 "Crisp" -0.5 "Matching" 0.5 "'Choose a square with 44 dots'" "LtoR" "Large" 636 6.45519856334012 "Expected"
"144" "s01" 144 "36:45:54" 0.75 "Vague" 0.5 "Matching" 0.5 "'Choose a square with about 50 dots'" "RtoL" "Large" 559 6.3261494731551 "Expected"
"145" "s01" 145 "06:15:24" -0.75 "Crisp" -0.5 "Matching" 0.5 "'Choose a square with 6 dots'" "LtoR" "Small" 570 6.3456363608286 "Expected"
"146" "s01" 146 "16:25:34" -0.25 "Vague" 0.5 "Matching" 0.5 "'Choose a square with about 20 dots'" "RtoL" "Small" 1415 7.25488481007734 "Expected"
"147" "s01" 147 "26:35:44" 0.25 "Crisp" -0.5 "Matching" 0.5 "'Choose a square with 26 dots'" "LtoR" "Small" 1715 7.44716835960004 "Near"
"148" "s01" 148 "36:45:54" 0.75 "Vague" 0.5 "Comparison" -0.5 "'Choose a square with far fewer than 50 dots'" "RtoL" "Small" 710 6.56526497003536 "Expected"
"149" "s01" 149 "06:15:24" -0.75 "Vague" 0.5 "Matching" 0.5 "'Choose a square with about 10 dots'" "LtoR" "Small" 689 6.53524127101366 "Expected"
"150" "s01" 150 "16:25:34" -0.25 "Vague" 0.5 "Matching" 0.5 "'Choose a square with about 30 dots'" "LtoR" "Large" 700 6.5510803350434 "Expected"
"151" "s01" 151 "26:35:44" 0.25 "Vague" 0.5 "Comparison" -0.5 "'Choose a square with far more than 30 dots'" "LtoR" "Large" 943 6.84906628263346 "Expected"
"152" "s01" 152 "36:45:54" 0.75 "Crisp" -0.5 "Matching" 0.5 "'Choose a square with 36 dots'" "LtoR" "Small" 702 6.55393340402581 "Far"
"153" "s01" 153 "06:15:24" -0.75 "Vague" 0.5 "Matching" 0.5 "'Choose a square with about 10 dots'" "RtoL" "Small" 644 6.46769872610435 "Expected"
"154" "s01" 154 "16:25:34" -0.25 "Vague" 0.5 "Comparison" -0.5 "'Choose a square with far fewer than 30 dots'" "LtoR" "Small" 661 6.49375383985169 "Expected"
"155" "s01" 155 "26:35:44" 0.25 "Crisp" -0.5 "Comparison" -0.5 "'Choose a square with more than 30 dots'" "RtoL" "Large" 728 6.59030104819669 "Expected"
"156" "s01" 156 "36:45:54" 0.75 "Crisp" -0.5 "Comparison" -0.5 "'Choose a square with more than 40 dots'" "RtoL" "Large" 624 6.43615036836943 "Expected"
"157" "s01" 157 "06:15:24" -0.75 "Vague" 0.5 "Comparison" -0.5 "'Choose a square with far more than 10 dots'" "LtoR" "Large" 695 6.54391184556479 "Expected"
"158" "s01" 158 "16:25:34" -0.25 "Crisp" -0.5 "Matching" 0.5 "'Choose a square with 16 dots'" "RtoL" "Small" 805 6.69084227741856 "Expected"
"159" "s01" 159 "26:35:44" 0.25 "Crisp" -0.5 "Matching" 0.5 "'Choose a square with 26 dots'" "RtoL" "Small" 1173 7.06731984865348 "Near"
"160" "s01" 160 "36:45:54" 0.75 "Crisp" -0.5 "Matching" 0.5 "'Choose a square with 36 dots'" "RtoL" "Small" 714 6.57088296233958 "Far"
"161" "s01" 161 "06:15:24" -0.75 "Crisp" -0.5 "Matching" 0.5 "'Choose a square with 24 dots'" "RtoL" "Large" 1050 6.95654544315157 "Expected"
"162" "s01" 162 "16:25:34" -0.25 "Vague" 0.5 "Comparison" -0.5 "'Choose a square with far more than 20 dots'" "LtoR" "Large" 615 6.42162226780652 "Expected"
"163" "s01" 163 "26:35:44" 0.25 "Vague" 0.5 "Comparison" -0.5 "'Choose a square with far fewer than 40 dots'" "LtoR" "Small" 571 6.34738920965601 "Far"
"164" "s01" 164 "36:45:54" 0.75 "Crisp" -0.5 "Comparison" -0.5 "'Choose a square with fewer than 50 dots'" "LtoR" "Small" 780 6.65929391968364 "Expected"
"165" "s01" 165 "06:15:24" -0.75 "Crisp" -0.5 "Comparison" -0.5 "'Choose a square with fewer than 20 dots'" "LtoR" "Small" 507 6.22851100359118 "Expected"
"166" "s01" 166 "16:25:34" -0.25 "Crisp" -0.5 "Comparison" -0.5 "'Choose a square with fewer than 30 dots'" "RtoL" "Small" 686 6.53087762772588 "Expected"
"167" "s01" 167 "26:35:44" 0.25 "Vague" 0.5 "Matching" 0.5 "'Choose a square with about 30 dots'" "LtoR" "Small" 840 6.73340189183736 "Far"
"168" "s01" 168 "36:45:54" 0.75 "Crisp" -0.5 "Matching" 0.5 "'Choose a square with 54 dots'" "LtoR" "Large" 706 6.55961523749324 "Expected"
"169" "s01" 169 "06:15:24" -0.75 "Crisp" -0.5 "Comparison" -0.5 "'Choose a square with more than 10 dots'" "LtoR" "Large" 554 6.31716468674728 "Expected"
"170" "s01" 170 "16:25:34" -0.25 "Vague" 0.5 "Matching" 0.5 "'Choose a square with about 30 dots'" "RtoL" "Large" 637 6.45676965557216 "Expected"
"171" "s01" 171 "26:35:44" 0.25 "Crisp" -0.5 "Comparison" -0.5 "'Choose a square with fewer than 40 dots'" "LtoR" "Small" 647 6.4723462945009 "Expected"
"172" "s01" 172 "36:45:54" 0.75 "Vague" 0.5 "Matching" 0.5 "'Choose a square with about 40 dots'" "RtoL" "Small" 899 6.80128303447162 "Far"
"173" "s01" 173 "06:15:24" -0.75 "Crisp" -0.5 "Comparison" -0.5 "'Choose a square with more than 10 dots'" "RtoL" "Large" 806 6.69208374250663 "Expected"
"174" "s01" 174 "16:25:34" -0.25 "Vague" 0.5 "Comparison" -0.5 "'Choose a square with far more than 20 dots'" "RtoL" "Large" 734 6.59850902861452 "Expected"
"175" "s01" 175 "26:35:44" 0.25 "Crisp" -0.5 "Comparison" -0.5 "'Choose a square with fewer than 40 dots'" "RtoL" "Small" 589 6.37842618365159 "Expected"
"176" "s01" 176 "36:45:54" 0.75 "Crisp" -0.5 "Comparison" -0.5 "'Choose a square with fewer than 50 dots'" "RtoL" "Small" 1032 6.93925394604151 "Expected"
"177" "s01" 177 "06:15:24" -0.75 "Vague" 0.5 "Comparison" -0.5 "'Choose a square with far more than 10 dots'" "RtoL" "Large" 574 6.35262939631957 "Expected"
"178" "s01" 178 "16:25:34" -0.25 "Crisp" -0.5 "Matching" 0.5 "'Choose a square with 34 dots'" "LtoR" "Large" 610 6.41345895716736 "Expected"
"179" "s01" 179 "26:35:44" 0.25 "Vague" 0.5 "Comparison" -0.5 "'Choose a square with far more than 30 dots'" "RtoL" "Large" 670 6.50727771238501 "Expected"
"180" "s01" 180 "36:45:54" 0.75 "Vague" 0.5 "Matching" 0.5 "'Choose a square with about 40 dots'" "LtoR" "Small" 645 6.46925031679577 "Far"
"181" "s01" 181 "06:15:24" -0.75 "Vague" 0.5 "Comparison" -0.5 "'Choose a square with far fewer than 20 dots'" "RtoL" "Small" 601 6.39859493453521 "Expected"
"182" "s01" 182 "16:25:34" -0.25 "Crisp" -0.5 "Comparison" -0.5 "'Choose a square with more than 20 dots'" "LtoR" "Large" 938 6.84374994900622 "Expected"
"183" "s01" 183 "26:35:44" 0.25 "Vague" 0.5 "Comparison" -0.5 "'Choose a square with far fewer than 40 dots'" "RtoL" "Small" 724 6.58479139238572 "Expected"
"184" "s01" 184 "36:45:54" 0.75 "Crisp" -0.5 "Comparison" -0.5 "'Choose a square with more than 40 dots'" "LtoR" "Large" 493 6.20050917404269 "Expected"
"185" "s01" 185 "06:15:24" -0.75 "Vague" 0.5 "Matching" 0.5 "'Choose a square with about 20 dots'" "RtoL" "Large" 671 6.50876913697168 "Expected"
"186" "s01" 186 "16:25:34" -0.25 "Crisp" -0.5 "Comparison" -0.5 "'Choose a square with fewer than 30 dots'" "LtoR" "Small" 617 6.42486902390539 "Expected"
"187" "s01" 187 "26:35:44" 0.25 "Crisp" -0.5 "Matching" 0.5 "'Choose a square with 44 dots'" "RtoL" "Large" 579 6.361302477573 "Expected"
"188" "s01" 188 "36:45:54" 0.75 "Vague" 0.5 "Comparison" -0.5 "'Choose a square with far more than 40 dots'" "RtoL" "Large" 928 6.8330317327862 "Expected"
"189" "s01" 189 "06:15:24" -0.75 "Vague" 0.5 "Matching" 0.5 "'Choose a square with about 20 dots'" "LtoR" "Large" 1261 7.13966033596492 "Expected"
"190" "s01" 190 "16:25:34" -0.25 "Vague" 0.5 "Matching" 0.5 "'Choose a square with about 20 dots'" "LtoR" "Small" 1637 7.40062057737113 "Near"
"191" "s01" 191 "26:35:44" 0.25 "Crisp" -0.5 "Comparison" -0.5 "'Choose a square with more than 30 dots'" "LtoR" "Large" 744 6.61204103483309 "Expected"
"192" "s01" 192 "36:45:54" 0.75 "Vague" 0.5 "Comparison" -0.5 "'Choose a square with far fewer than 50 dots'" "LtoR" "Small" 614 6.41999492814714 "Expected"
"193" "s10" 1 "06:15:24" -0.75 "Crisp" -0.5 "Comparison" -0.5 "'Choose a square with more than 10 dots'" "LtoR" "Large" 2355 7.76429600645052 "Near"
"194" "s10" 2 "16:25:34" -0.25 "Crisp" -0.5 "Comparison" -0.5 "'Choose a square with more than 20 dots'" "LtoR" "Large" 3854 8.25686684897431 "Far"
"195" "s10" 3 "26:35:44" 0.25 "Vague" 0.5 "Comparison" -0.5 "'Choose a square with far fewer than 40 dots'" "RtoL" "Small" 2284 7.7336835707759 "Expected"
"196" "s10" 4 "36:45:54" 0.75 "Crisp" -0.5 "Comparison" -0.5 "'Choose a square with fewer than 50 dots'" "RtoL" "Small" 2360 7.76641689801966 "Near"
"197" "s10" 5 "06:15:24" -0.75 "Crisp" -0.5 "Matching" 0.5 "'Choose a square with 6 dots'" "LtoR" "Small" 1471 7.29369772060144 "Expected"
"198" "s10" 6 "16:25:34" -0.25 "Vague" 0.5 "Comparison" -0.5 "'Choose a square with far more than 20 dots'" "LtoR" "Large" 2366 7.76895604453833 "Near"
"199" "s10" 7 "26:35:44" 0.25 "Crisp" -0.5 "Matching" 0.5 "'Choose a square with 26 dots'" "RtoL" "Small" 4059 8.3086919168389 "Expected"
"200" "s10" 8 "36:45:54" 0.75 "Crisp" -0.5 "Comparison" -0.5 "'Choose a square with fewer than 50 dots'" "LtoR" "Small" 4586 8.43076346341785 "Expected"
"201" "s10" 9 "06:15:24" -0.75 "Crisp" -0.5 "Matching" 0.5 "'Choose a square with 24 dots'" "RtoL" "Large" 4847 8.48611523584538 "Near"
"202" "s10" 10 "16:25:34" -0.25 "Crisp" -0.5 "Matching" 0.5 "'Choose a square with 16 dots'" "RtoL" "Small" 3650 8.20248244657654 "Expected"
"203" "s10" 11 "26:35:44" 0.25 "Crisp" -0.5 "Comparison" -0.5 "'Choose a square with more than 30 dots'" "LtoR" "Large" 3682 8.21121136179302 "Expected"
"204" "s10" 12 "36:45:54" 0.75 "Vague" 0.5 "Comparison" -0.5 "'Choose a square with far more than 40 dots'" "LtoR" "Large" 1848 7.52185925220163 "Expected"
"205" "s10" 13 "06:15:24" -0.75 "Crisp" -0.5 "Matching" 0.5 "'Choose a square with 6 dots'" "RtoL" "Small" 2163 7.67925142595306 "Near"
"206" "s10" 14 "16:25:34" -0.25 "Vague" 0.5 "Matching" 0.5 "'Choose a square with about 30 dots'" "LtoR" "Large" 3878 8.2630748358026 "Near"
"207" "s10" 15 "26:35:44" 0.25 "Crisp" -0.5 "Comparison" -0.5 "'Choose a square with fewer than 40 dots'" "LtoR" "Small" 3670 8.20794694104862 "Expected"
"208" "s10" 16 "36:45:54" 0.75 "Vague" 0.5 "Matching" 0.5 "'Choose a square with about 50 dots'" "RtoL" "Large" 3106 8.04109100370863 "Near"
"209" "s10" 17 "06:15:24" -0.75 "Vague" 0.5 "Matching" 0.5 "'Choose a square with about 10 dots'" "RtoL" "Small" 6271 8.74369111054302 "Expected"
"210" "s10" 18 "16:25:34" -0.25 "Crisp" -0.5 "Matching" 0.5 "'Choose a square with 34 dots'" "RtoL" "Large" 3479 8.15450017515194 "Near"
"211" "s10" 19 "26:35:44" 0.25 "Crisp" -0.5 "Comparison" -0.5 "'Choose a square with more than 30 dots'" "RtoL" "Large" 1820 7.50659178007084 "Expected"
"212" "s10" 20 "36:45:54" 0.75 "Vague" 0.5 "Matching" 0.5 "'Choose a square with about 50 dots'" "LtoR" "Large" 3181 8.06495089174914 "Expected"
"213" "s10" 21 "06:15:24" -0.75 "Vague" 0.5 "Comparison" -0.5 "'Choose a square with far more than 10 dots'" "LtoR" "Large" 1760 7.4730690880322 "Expected"
"214" "s10" 22 "16:25:34" -0.25 "Crisp" -0.5 "Matching" 0.5 "'Choose a square with 34 dots'" "LtoR" "Large" 2183 7.68845535654994 "Near"
"215" "s10" 23 "26:35:44" 0.25 "Vague" 0.5 "Comparison" -0.5 "'Choose a square with far more than 30 dots'" "LtoR" "Large" 3070 8.02943284058124 "Expected"
"216" "s10" 24 "36:45:54" 0.75 "Vague" 0.5 "Comparison" -0.5 "'Choose a square with far fewer than 50 dots'" "LtoR" "Small" 3506 8.16223106548118 "Expected"
"217" "s10" 25 "06:15:24" -0.75 "Crisp" -0.5 "Comparison" -0.5 "'Choose a square with fewer than 20 dots'" "RtoL" "Small" 3643 8.20056279700856 "Expected"
"218" "s10" 26 "16:25:34" -0.25 "Crisp" -0.5 "Comparison" -0.5 "'Choose a square with fewer than 30 dots'" "RtoL" "Small" 3023 8.01400499477946 "Expected"
"219" "s10" 27 "26:35:44" 0.25 "Vague" 0.5 "Matching" 0.5 "'Choose a square with about 40 dots'" "LtoR" "Large" 2435 7.79770203551669 "Far"
"220" "s10" 28 "36:45:54" 0.75 "Crisp" -0.5 "Comparison" -0.5 "'Choose a square with more than 40 dots'" "RtoL" "Large" 1603 7.37963215260955 "Expected"
"221" "s10" 29 "06:15:24" -0.75 "Vague" 0.5 "Comparison" -0.5 "'Choose a square with far more than 10 dots'" "RtoL" "Large" 2000 7.60090245954208 "Expected"
"222" "s10" 30 "16:25:34" -0.25 "Vague" 0.5 "Matching" 0.5 "'Choose a square with about 30 dots'" "RtoL" "Large" 1823 7.50823877467866 "Near"
"223" "s10" 31 "26:35:44" 0.25 "Vague" 0.5 "Matching" 0.5 "'Choose a square with about 30 dots'" "RtoL" "Small" 3592 8.18646442942209 "Expected"
"224" "s10" 32 "36:45:54" 0.75 "Crisp" -0.5 "Matching" 0.5 "'Choose a square with 54 dots'" "LtoR" "Large" 3156 8.05706068196577 "Far"
"225" "s10" 33 "06:15:24" -0.75 "Crisp" -0.5 "Comparison" -0.5 "'Choose a square with more than 10 dots'" "RtoL" "Large" 1713 7.44600149832412 "Expected"
"226" "s10" 34 "16:25:34" -0.25 "Crisp" -0.5 "Comparison" -0.5 "'Choose a square with fewer than 30 dots'" "LtoR" "Small" 2544 7.84149292446001 "Expected"
"227" "s10" 35 "26:35:44" 0.25 "Crisp" -0.5 "Comparison" -0.5 "'Choose a square with fewer than 40 dots'" "RtoL" "Small" 2616 7.86940171257709 "Expected"
"228" "s10" 36 "36:45:54" 0.75 "Vague" 0.5 "Comparison" -0.5 "'Choose a square with far more than 40 dots'" "RtoL" "Large" 1176 7.06987412845857 "Expected"
"229" "s10" 37 "06:15:24" -0.75 "Crisp" -0.5 "Comparison" -0.5 "'Choose a square with fewer than 20 dots'" "LtoR" "Small" 1487 7.30451594646016 "Expected"
"230" "s10" 38 "16:25:34" -0.25 "Vague" 0.5 "Comparison" -0.5 "'Choose a square with far more than 20 dots'" "RtoL" "Large" 2356 7.76472054477148 "Expected"
"231" "s10" 39 "26:35:44" 0.25 "Crisp" -0.5 "Matching" 0.5 "'Choose a square with 44 dots'" "RtoL" "Large" 3908 8.27078101316267 "Expected"
"232" "s10" 40 "36:45:54" 0.75 "Vague" 0.5 "Matching" 0.5 "'Choose a square with about 40 dots'" "RtoL" "Small" 1514 7.32251043399739 "Near"
"233" "s10" 41 "06:15:24" -0.75 "Crisp" -0.5 "Matching" 0.5 "'Choose a square with 24 dots'" "LtoR" "Large" 1950 7.57558465155779 "Near"
"234" "s10" 42 "16:25:34" -0.25 "Vague" 0.5 "Matching" 0.5 "'Choose a square with about 20 dots'" "RtoL" "Small" 2197 7.69484807238461 "Expected"
"235" "s10" 43 "26:35:44" 0.25 "Crisp" -0.5 "Matching" 0.5 "'Choose a square with 44 dots'" "LtoR" "Large" 2745 7.91753635394363 "Near"
"236" "s10" 44 "36:45:54" 0.75 "Vague" 0.5 "Matching" 0.5 "'Choose a square with about 40 dots'" "LtoR" "Small" 2145 7.67089483136212 "Expected"
"237" "s10" 45 "06:15:24" -0.75 "Vague" 0.5 "Comparison" -0.5 "'Choose a square with far fewer than 20 dots'" "RtoL" "Small" 1791 7.49052940206071 "Expected"
"238" "s10" 46 "16:25:34" -0.25 "Crisp" -0.5 "Comparison" -0.5 "'Choose a square with more than 20 dots'" "RtoL" "Large" 1422 7.25981961036319 "Expected"
"239" "s10" 47 "26:35:44" 0.25 "Vague" 0.5 "Comparison" -0.5 "'Choose a square with far fewer than 40 dots'" "LtoR" "Small" 2573 7.85282781228174 "Expected"
"240" "s10" 48 "36:45:54" 0.75 "Crisp" -0.5 "Matching" 0.5 "'Choose a square with 36 dots'" "RtoL" "Small" 2844 7.95296679092313 "Expected"
"241" "s10" 49 "06:15:24" -0.75 "Vague" 0.5 "Matching" 0.5 "'Choose a square with about 20 dots'" "RtoL" "Large" 2014 7.60787807327851 "Near"
"242" "s10" 50 "16:25:34" -0.25 "Crisp" -0.5 "Matching" 0.5 "'Choose a square with 16 dots'" "LtoR" "Small" 3552 8.17526610411206 "Expected"
"243" "s10" 51 "26:35:44" 0.25 "Vague" 0.5 "Matching" 0.5 "'Choose a square with about 40 dots'" "RtoL" "Large" 3150 8.05515773181968 "Far"
"244" "s10" 52 "36:45:54" 0.75 "Crisp" -0.5 "Matching" 0.5 "'Choose a square with 36 dots'" "LtoR" "Small" 2822 7.94520113241276 "Expected"
"245" "s10" 53 "06:15:24" -0.75 "Vague" 0.5 "Comparison" -0.5 "'Choose a square with far fewer than 20 dots'" "LtoR" "Small" 1185 7.07749805356923 "Expected"
"246" "s10" 54 "16:25:34" -0.25 "Vague" 0.5 "Comparison" -0.5 "'Choose a square with far fewer than 30 dots'" "LtoR" "Small" 2448 7.80302664363222 "Expected"
"247" "s10" 55 "26:35:44" 0.25 "Crisp" -0.5 "Matching" 0.5 "'Choose a square with 26 dots'" "LtoR" "Small" 3239 8.08301991917133 "Expected"
"248" "s10" 56 "36:45:54" 0.75 "Crisp" -0.5 "Matching" 0.5 "'Choose a square with 54 dots'" "RtoL" "Large" 3508 8.16280135349207 "Expected"
"249" "s10" 57 "06:15:24" -0.75 "Vague" 0.5 "Matching" 0.5 "'Choose a square with about 10 dots'" "LtoR" "Small" 9582 9.16764161744307 "Expected"
"250" "s10" 58 "16:25:34" -0.25 "Vague" 0.5 "Matching" 0.5 "'Choose a square with about 20 dots'" "LtoR" "Small" 3647 8.20166019080868 "Expected"
"251" "s10" 59 "26:35:44" 0.25 "Vague" 0.5 "Matching" 0.5 "'Choose a square with about 30 dots'" "LtoR" "Small" 3192 8.0684029585697 "Expected"
"252" "s10" 60 "36:45:54" 0.75 "Vague" 0.5 "Comparison" -0.5 "'Choose a square with far fewer than 50 dots'" "RtoL" "Small" 2735 7.91388671485608 "Expected"
"253" "s10" 61 "06:15:24" -0.75 "Vague" 0.5 "Matching" 0.5 "'Choose a square with about 20 dots'" "LtoR" "Large" 2093 7.646353722446 "Near"
"254" "s10" 62 "16:25:34" -0.25 "Vague" 0.5 "Comparison" -0.5 "'Choose a square with far fewer than 30 dots'" "RtoL" "Small" 3347 8.11581970121133 "Expected"
"255" "s10" 63 "26:35:44" 0.25 "Vague" 0.5 "Comparison" -0.5 "'Choose a square with far more than 30 dots'" "RtoL" "Large" 1432 7.26682734752059 "Expected"
"256" "s10" 64 "36:45:54" 0.75 "Crisp" -0.5 "Comparison" -0.5 "'Choose a square with more than 40 dots'" "LtoR" "Large" 2230 7.70975686445416 "Expected"
"257" "s10" 65 "06:15:24" -0.75 "Vague" 0.5 "Matching" 0.5 "'Choose a square with about 10 dots'" "LtoR" "Small" 3145 8.05356916913454 "Expected"
"258" "s10" 66 "16:25:34" -0.25 "Vague" 0.5 "Comparison" -0.5 "'Choose a square with far more than 20 dots'" "RtoL" "Large" 1337 7.19818357710194 "Expected"
"259" "s10" 67 "26:35:44" 0.25 "Vague" 0.5 "Matching" 0.5 "'Choose a square with about 30 dots'" "RtoL" "Small" 2315 7.74716496652033 "Expected"
"260" "s10" 68 "36:45:54" 0.75 "Crisp" -0.5 "Matching" 0.5 "'Choose a square with 54 dots'" "LtoR" "Large" 3010 8.00969535774292 "Far"
"261" "s10" 69 "06:15:24" -0.75 "Crisp" -0.5 "Comparison" -0.5 "'Choose a square with fewer than 20 dots'" "RtoL" "Small" 1429 7.26473017792987 "Expected"
"262" "s10" 70 "16:25:34" -0.25 "Crisp" -0.5 "Comparison" -0.5 "'Choose a square with more than 20 dots'" "LtoR" "Large" 1534 7.3356339819272 "Expected"
"263" "s10" 71 "26:35:44" 0.25 "Crisp" -0.5 "Comparison" -0.5 "'Choose a square with fewer than 40 dots'" "RtoL" "Small" 3726 8.22309055116153 "Expected"
"264" "s10" 72 "36:45:54" 0.75 "Vague" 0.5 "Matching" 0.5 "'Choose a square with about 40 dots'" "RtoL" "Small" 2216 7.70345904786717 "Near"
"265" "s10" 73 "06:15:24" -0.75 "Vague" 0.5 "Comparison" -0.5 "'Choose a square with far more than 10 dots'" "LtoR" "Large" 2539 7.83952558170468 "Expected"
"266" "s10" 74 "16:25:34" -0.25 "Vague" 0.5 "Matching" 0.5 "'Choose a square with about 30 dots'" "RtoL" "Large" 3103 8.04012466444838 "Far"
"267" "s10" 75 "26:35:44" 0.25 "Vague" 0.5 "Comparison" -0.5 "'Choose a square with far more than 30 dots'" "LtoR" "Large" 1493 7.30854279753919 "Expected"
"268" "s10" 76 "36:45:54" 0.75 "Crisp" -0.5 "Comparison" -0.5 "'Choose a square with more than 40 dots'" "RtoL" "Large" 1507 7.3178761986265 "Expected"
"269" "s10" 77 "06:15:24" -0.75 "Vague" 0.5 "Matching" 0.5 "'Choose a square with about 20 dots'" "RtoL" "Large" 2856 7.95717732345947 "Near"
"270" "s10" 78 "16:25:34" -0.25 "Crisp" -0.5 "Matching" 0.5 "'Choose a square with 34 dots'" "RtoL" "Large" 3283 8.09651291750159 "Near"
"271" "s10" 79 "26:35:44" 0.25 "Vague" 0.5 "Matching" 0.5 "'Choose a square with about 40 dots'" "RtoL" "Large" 2552 7.84463264446468 "Near"
"272" "s10" 80 "36:45:54" 0.75 "Vague" 0.5 "Comparison" -0.5 "'Choose a square with far more than 40 dots'" "RtoL" "Large" 1881 7.53955882930103 "Expected"
"273" "s10" 81 "06:15:24" -0.75 "Vague" 0.5 "Comparison" -0.5 "'Choose a square with far fewer than 20 dots'" "RtoL" "Small" 1864 7.53047999524554 "Expected"
"274" "s10" 82 "16:25:34" -0.25 "Vague" 0.5 "Matching" 0.5 "'Choose a square with about 30 dots'" "LtoR" "Large" 3276 8.09437844497296 "Near"
"275" "s10" 83 "26:35:44" 0.25 "Crisp" -0.5 "Comparison" -0.5 "'Choose a square with more than 30 dots'" "LtoR" "Large" 1384 7.23273313617761 "Expected"
"276" "s10" 84 "36:45:54" 0.75 "Vague" 0.5 "Comparison" -0.5 "'Choose a square with far fewer than 50 dots'" "RtoL" "Small" 4600 8.43381158247719 "Expected"
"277" "s10" 85 "06:15:24" -0.75 "Crisp" -0.5 "Matching" 0.5 "'Choose a square with 6 dots'" "LtoR" "Small" 2485 7.81802793853073 "Expected"
"278" "s10" 86 "16:25:34" -0.25 "Crisp" -0.5 "Comparison" -0.5 "'Choose a square with more than 20 dots'" "RtoL" "Large" 1530 7.33302301438648 "Expected"
"279" "s10" 87 "26:35:44" 0.25 "Vague" 0.5 "Comparison" -0.5 "'Choose a square with far fewer than 40 dots'" "RtoL" "Small" 3895 8.26744895830485 "Expected"
"280" "s10" 88 "36:45:54" 0.75 "Crisp" -0.5 "Matching" 0.5 "'Choose a square with 54 dots'" "RtoL" "Large" 4097 8.31801027754687 "Far"
"281" "s10" 89 "06:15:24" -0.75 "Vague" 0.5 "Comparison" -0.5 "'Choose a square with far more than 10 dots'" "RtoL" "Large" 1755 7.47022413589997 "Expected"
"282" "s10" 90 "16:25:34" -0.25 "Crisp" -0.5 "Comparison" -0.5 "'Choose a square with fewer than 30 dots'" "RtoL" "Small" 2462 7.8087293067444 "Expected"
"283" "s10" 91 "26:35:44" 0.25 "Crisp" -0.5 "Matching" 0.5 "'Choose a square with 44 dots'" "RtoL" "Large" 2638 7.87777633327726 "Near"
"284" "s10" 92 "36:45:54" 0.75 "Crisp" -0.5 "Matching" 0.5 "'Choose a square with 36 dots'" "LtoR" "Small" 2306 7.743269700829 "Expected"
"285" "s10" 93 "06:15:24" -0.75 "Crisp" -0.5 "Matching" 0.5 "'Choose a square with 24 dots'" "LtoR" "Large" 2365 7.76853330092603 "Near"
"286" "s10" 94 "16:25:34" -0.25 "Crisp" -0.5 "Matching" 0.5 "'Choose a square with 16 dots'" "RtoL" "Small" 2641 7.87891291229713 "Expected"
"287" "s10" 95 "26:35:44" 0.25 "Crisp" -0.5 "Matching" 0.5 "'Choose a square with 44 dots'" "LtoR" "Large" 3774 8.2358907259285 "Near"
"288" "s10" 96 "36:45:54" 0.75 "Crisp" -0.5 "Matching" 0.5 "'Choose a square with 36 dots'" "RtoL" "Small" 1550 7.34601020991329 "Expected"
"289" "s10" 97 "06:15:24" -0.75 "Crisp" -0.5 "Comparison" -0.5 "'Choose a square with fewer than 20 dots'" "LtoR" "Small" 1304 7.1731917424866 "Expected"
"290" "s10" 98 "16:25:34" -0.25 "Vague" 0.5 "Matching" 0.5 "'Choose a square with about 20 dots'" "LtoR" "Small" 2225 7.70751219460034 "Expected"
"291" "s10" 99 "26:35:44" 0.25 "Vague" 0.5 "Matching" 0.5 "'Choose a square with about 40 dots'" "LtoR" "Large" 4483 8.40804774415544 "Near"
"292" "s10" 100 "36:45:54" 0.75 "Vague" 0.5 "Comparison" -0.5 "'Choose a square with far fewer than 50 dots'" "LtoR" "Small" 5354 8.5855992240803 "Expected"
"293" "s10" 101 "06:15:24" -0.75 "Crisp" -0.5 "Matching" 0.5 "'Choose a square with 24 dots'" "RtoL" "Large" 5419 8.59766657556611 "Expected"
"294" "s10" 102 "16:25:34" -0.25 "Vague" 0.5 "Comparison" -0.5 "'Choose a square with far more than 20 dots'" "LtoR" "Large" 1890 7.54433210805369 "Expected"
"295" "s10" 103 "26:35:44" 0.25 "Vague" 0.5 "Comparison" -0.5 "'Choose a square with far fewer than 40 dots'" "LtoR" "Small" 2985 8.0013550258267 "Expected"
"296" "s10" 104 "36:45:54" 0.75 "Vague" 0.5 "Matching" 0.5 "'Choose a square with about 50 dots'" "RtoL" "Large" 2686 7.89580837708318 "Near"
"297" "s10" 105 "06:15:24" -0.75 "Vague" 0.5 "Comparison" -0.5 "'Choose a square with far fewer than 20 dots'" "LtoR" "Small" 1102 7.00488198971286 "Expected"
"298" "s10" 106 "16:25:34" -0.25 "Vague" 0.5 "Comparison" -0.5 "'Choose a square with far fewer than 30 dots'" "LtoR" "Small" 4310 8.36869318309779 "Expected"
"299" "s10" 107 "26:35:44" 0.25 "Crisp" -0.5 "Comparison" -0.5 "'Choose a square with fewer than 40 dots'" "LtoR" "Small" 3493 8.15851624480683 "Expected"
"300" "s10" 108 "36:45:54" 0.75 "Vague" 0.5 "Matching" 0.5 "'Choose a square with about 40 dots'" "LtoR" "Small" 1797 7.49387388678356 "Near"
"301" "s10" 109 "06:15:24" -0.75 "Vague" 0.5 "Matching" 0.5 "'Choose a square with about 10 dots'" "RtoL" "Small" 4066 8.31041499418829 "Expected"
"302" "s10" 110 "16:25:34" -0.25 "Vague" 0.5 "Comparison" -0.5 "'Choose a square with far fewer than 30 dots'" "RtoL" "Small" 3014 8.01102337918644 "Expected"
"303" "s10" 111 "26:35:44" 0.25 "Crisp" -0.5 "Matching" 0.5 "'Choose a square with 26 dots'" "RtoL" "Small" 6856 8.83287946027762 "Expected"
"304" "s10" 112 "36:45:54" 0.75 "Crisp" -0.5 "Comparison" -0.5 "'Choose a square with more than 40 dots'" "LtoR" "Large" 3886 8.26513562993738 "Expected"
"305" "s10" 113 "06:15:24" -0.75 "Crisp" -0.5 "Comparison" -0.5 "'Choose a square with more than 10 dots'" "LtoR" "Large" 3258 8.08886878916199 "Expected"
"306" "s10" 114 "16:25:34" -0.25 "Crisp" -0.5 "Comparison" -0.5 "'Choose a square with fewer than 30 dots'" "LtoR" "Small" 2548 7.84306401669205 "Expected"
"307" "s10" 115 "26:35:44" 0.25 "Crisp" -0.5 "Matching" 0.5 "'Choose a square with 26 dots'" "LtoR" "Small" 2566 7.85010354517558 "Expected"
"308" "s10" 116 "36:45:54" 0.75 "Vague" 0.5 "Comparison" -0.5 "'Choose a square with far more than 40 dots'" "LtoR" "Large" 2349 7.76174498465891 "Expected"
"309" "s10" 117 "06:15:24" -0.75 "Vague" 0.5 "Matching" 0.5 "'Choose a square with about 20 dots'" "LtoR" "Large" 3939 8.27868216297091 "Near"
"310" "s10" 118 "16:25:34" -0.25 "Crisp" -0.5 "Matching" 0.5 "'Choose a square with 34 dots'" "LtoR" "Large" 3391 8.12888014212564 "Near"
"311" "s10" 119 "26:35:44" 0.25 "Crisp" -0.5 "Comparison" -0.5 "'Choose a square with more than 30 dots'" "RtoL" "Large" 2543 7.84109976542212 "Expected"
"312" "s10" 120 "36:45:54" 0.75 "Crisp" -0.5 "Comparison" -0.5 "'Choose a square with fewer than 50 dots'" "RtoL" "Small" 2174 7.68432406768116 "Expected"
"313" "s10" 121 "06:15:24" -0.75 "Crisp" -0.5 "Matching" 0.5 "'Choose a square with 6 dots'" "RtoL" "Small" 2797 7.93630269320196 "Expected"
"314" "s10" 122 "16:25:34" -0.25 "Crisp" -0.5 "Matching" 0.5 "'Choose a square with 16 dots'" "LtoR" "Small" 5311 8.5775354204224 "Expected"
"315" "s10" 123 "26:35:44" 0.25 "Vague" 0.5 "Matching" 0.5 "'Choose a square with about 30 dots'" "LtoR" "Small" 4725 8.46062283992784 "Expected"
"316" "s10" 124 "36:45:54" 0.75 "Crisp" -0.5 "Comparison" -0.5 "'Choose a square with fewer than 50 dots'" "LtoR" "Small" 5805 8.66647489413199 "Expected"
"317" "s10" 125 "06:15:24" -0.75 "Crisp" -0.5 "Comparison" -0.5 "'Choose a square with more than 10 dots'" "RtoL" "Large" 1824 7.50878717063428 "Expected"
"318" "s10" 126 "16:25:34" -0.25 "Vague" 0.5 "Matching" 0.5 "'Choose a square with about 20 dots'" "RtoL" "Small" 3294 8.09985791073758 "Expected"
"319" "s10" 127 "26:35:44" 0.25 "Vague" 0.5 "Comparison" -0.5 "'Choose a square with far more than 30 dots'" "RtoL" "Large" 4309 8.36846113761584 "Expected"
"320" "s10" 128 "36:45:54" 0.75 "Vague" 0.5 "Matching" 0.5 "'Choose a square with about 50 dots'" "LtoR" "Large" 3424 8.13856473726163 "Near"
"321" "s10" 129 "06:15:24" -0.75 "Crisp" -0.5 "Matching" 0.5 "'Choose a square with 6 dots'" "RtoL" "Small" 1429 7.26473017792987 "Expected"
"322" "s10" 130 "16:25:34" -0.25 "Vague" 0.5 "Matching" 0.5 "'Choose a square with about 20 dots'" "LtoR" "Small" 2361 7.76684053708551 "Expected"
"323" "s10" 131 "26:35:44" 0.25 "Vague" 0.5 "Matching" 0.5 "'Choose a square with about 40 dots'" "RtoL" "Large" 2503 7.82524529143177 "Far"
"324" "s10" 132 "36:45:54" 0.75 "Crisp" -0.5 "Comparison" -0.5 "'Choose a square with more than 40 dots'" "RtoL" "Large" 1661 7.41517510961329 "Expected"
"325" "s10" 133 "06:15:24" -0.75 "Crisp" -0.5 "Comparison" -0.5 "'Choose a square with fewer than 20 dots'" "RtoL" "Small" 1777 7.48268182815465 "Expected"
"326" "s10" 134 "16:25:34" -0.25 "Crisp" -0.5 "Comparison" -0.5 "'Choose a square with more than 20 dots'" "LtoR" "Large" 2007 7.60439634879634 "Expected"
"327" "s10" 135 "26:35:44" 0.25 "Vague" 0.5 "Matching" 0.5 "'Choose a square with about 30 dots'" "RtoL" "Small" 1804 7.49776170062257 "Expected"
"328" "s10" 136 "36:45:54" 0.75 "Vague" 0.5 "Comparison" -0.5 "'Choose a square with far more than 40 dots'" "RtoL" "Large" 1884 7.54115245513631 "Expected"
"329" "s10" 137 "06:15:24" -0.75 "Vague" 0.5 "Comparison" -0.5 "'Choose a square with far more than 10 dots'" "LtoR" "Large" 1437 7.27031288607902 "Expected"
"330" "s10" 138 "16:25:34" -0.25 "Crisp" -0.5 "Matching" 0.5 "'Choose a square with 16 dots'" "LtoR" "Small" 8359 9.03109408169916 "Expected"
"331" "s10" 139 "26:35:44" 0.25 "Vague" 0.5 "Comparison" -0.5 "'Choose a square with far fewer than 40 dots'" "RtoL" "Small" 3787 8.2393294279018 "Near"
"332" "s10" 140 "36:45:54" 0.75 "Vague" 0.5 "Comparison" -0.5 "'Choose a square with far fewer than 50 dots'" "RtoL" "Small" 4717 8.45892828328426 "Expected"
"333" "s10" 141 "06:15:24" -0.75 "Vague" 0.5 "Comparison" -0.5 "'Choose a square with far fewer than 20 dots'" "LtoR" "Small" 1534 7.3356339819272 "Expected"
"334" "s10" 142 "16:25:34" -0.25 "Vague" 0.5 "Matching" 0.5 "'Choose a square with about 30 dots'" "LtoR" "Large" 3681 8.21093973337902 "Near"
"335" "s10" 143 "26:35:44" 0.25 "Crisp" -0.5 "Matching" 0.5 "'Choose a square with 44 dots'" "LtoR" "Large" 10253 9.23532562467009 "Near"
"336" "s10" 144 "36:45:54" 0.75 "Vague" 0.5 "Matching" 0.5 "'Choose a square with about 50 dots'" "LtoR" "Large" 3272 8.09315669772264 "Expected"
"337" "s10" 145 "06:15:24" -0.75 "Vague" 0.5 "Comparison" -0.5 "'Choose a square with far more than 10 dots'" "RtoL" "Large" 1267 7.14440718032114 "Expected"
"338" "s10" 146 "16:25:34" -0.25 "Vague" 0.5 "Comparison" -0.5 "'Choose a square with far fewer than 30 dots'" "RtoL" "Small" 4533 8.41913925094085 "Expected"
"339" "s10" 147 "26:35:44" 0.25 "Vague" 0.5 "Comparison" -0.5 "'Choose a square with far more than 30 dots'" "RtoL" "Large" 1349 7.20711885620776 "Expected"
"340" "s10" 148 "36:45:54" 0.75 "Vague" 0.5 "Comparison" -0.5 "'Choose a square with far more than 40 dots'" "LtoR" "Large" 1864 7.53047999524554 "Expected"
"341" "s10" 149 "06:15:24" -0.75 "Crisp" -0.5 "Matching" 0.5 "'Choose a square with 24 dots'" "RtoL" "Large" 5780 8.66215896166642 "Expected"
"342" "s10" 150 "16:25:34" -0.25 "Vague" 0.5 "Matching" 0.5 "'Choose a square with about 20 dots'" "RtoL" "Small" 5115 8.53993267838573 "Expected"
"343" "s10" 151 "26:35:44" 0.25 "Crisp" -0.5 "Comparison" -0.5 "'Choose a square with more than 30 dots'" "LtoR" "Large" 2570 7.85166117788927 "Expected"
"344" "s10" 152 "36:45:54" 0.75 "Vague" 0.5 "Matching" 0.5 "'Choose a square with about 40 dots'" "LtoR" "Small" 6017 8.70234407522035 "Expected"
"345" "s10" 153 "06:15:24" -0.75 "Crisp" -0.5 "Matching" 0.5 "'Choose a square with 24 dots'" "LtoR" "Large" 5538 8.61938870373091 "Expected"
"346" "s10" 154 "16:25:34" -0.25 "Crisp" -0.5 "Comparison" -0.5 "'Choose a square with fewer than 30 dots'" "LtoR" "Small" 3388 8.12799505577195 "Expected"
"347" "s10" 155 "26:35:44" 0.25 "Vague" 0.5 "Comparison" -0.5 "'Choose a square with far more than 30 dots'" "LtoR" "Large" 2213 7.70210434005105 "Expected"
"348" "s10" 156 "36:45:54" 0.75 "Vague" 0.5 "Matching" 0.5 "'Choose a square with about 50 dots'" "RtoL" "Large" 4035 8.30276158070405 "Expected"
"349" "s10" 157 "06:15:24" -0.75 "Vague" 0.5 "Comparison" -0.5 "'Choose a square with far fewer than 20 dots'" "RtoL" "Small" 1306 7.17472430983638 "Expected"
"350" "s10" 158 "16:25:34" -0.25 "Vague" 0.5 "Comparison" -0.5 "'Choose a square with far more than 20 dots'" "LtoR" "Large" 1300 7.17011954344963 "Expected"
"351" "s10" 159 "26:35:44" 0.25 "Crisp" -0.5 "Comparison" -0.5 "'Choose a square with fewer than 40 dots'" "LtoR" "Small" 5455 8.60428789826717 "Expected"
"352" "s10" 160 "36:45:54" 0.75 "Crisp" -0.5 "Matching" 0.5 "'Choose a square with 54 dots'" "LtoR" "Large" 3306 8.10349427838097 "Expected"
"353" "s10" 161 "06:15:24" -0.75 "Crisp" -0.5 "Matching" 0.5 "'Choose a square with 6 dots'" "LtoR" "Small" 1331 7.19368581839511 "Expected"
"354" "s10" 162 "16:25:34" -0.25 "Crisp" -0.5 "Comparison" -0.5 "'Choose a square with more than 20 dots'" "RtoL" "Large" 1207 7.09589322109753 "Expected"
"355" "s10" 163 "26:35:44" 0.25 "Crisp" -0.5 "Comparison" -0.5 "'Choose a square with more than 30 dots'" "RtoL" "Large" 1422 7.25981961036319 "Expected"
"356" "s10" 164 "36:45:54" 0.75 "Crisp" -0.5 "Matching" 0.5 "'Choose a square with 54 dots'" "RtoL" "Large" 5120 8.54090971803355 "Expected"
"357" "s10" 165 "06:15:24" -0.75 "Vague" 0.5 "Matching" 0.5 "'Choose a square with about 20 dots'" "RtoL" "Large" 21566 9.97887327944202 "Near"
"358" "s10" 166 "16:25:34" -0.25 "Crisp" -0.5 "Comparison" -0.5 "'Choose a square with fewer than 30 dots'" "RtoL" "Small" 4773 8.4707303170059 "Expected"
"359" "s10" 167 "26:35:44" 0.25 "Crisp" -0.5 "Matching" 0.5 "'Choose a square with 26 dots'" "LtoR" "Small" 8334 9.0280988119824 "Expected"
"360" "s10" 168 "36:45:54" 0.75 "Crisp" -0.5 "Comparison" -0.5 "'Choose a square with fewer than 50 dots'" "LtoR" "Small" 3338 8.11312710422178 "Expected"
"361" "s10" 169 "06:15:24" -0.75 "Vague" 0.5 "Matching" 0.5 "'Choose a square with about 10 dots'" "RtoL" "Small" 16048 9.68333951020172 "Near"
"362" "s10" 170 "16:25:34" -0.25 "Crisp" -0.5 "Matching" 0.5 "'Choose a square with 34 dots'" "RtoL" "Large" 8697 9.07073341758977 "Near"
"363" "s10" 171 "26:35:44" 0.25 "Crisp" -0.5 "Comparison" -0.5 "'Choose a square with fewer than 40 dots'" "RtoL" "Small" 1751 7.46794233228585 "Expected"
"364" "s10" 172 "36:45:54" 0.75 "Crisp" -0.5 "Comparison" -0.5 "'Choose a square with more than 40 dots'" "LtoR" "Large" 2482 7.81681996576455 "Expected"
"365" "s10" 173 "06:15:24" -0.75 "Vague" 0.5 "Matching" 0.5 "'Choose a square with about 20 dots'" "LtoR" "Large" 10929 9.29917508567667 "Expected"
"366" "s10" 174 "16:25:34" -0.25 "Crisp" -0.5 "Matching" 0.5 "'Choose a square with 16 dots'" "RtoL" "Small" 6228 8.73681053295389 "Expected"
"367" "s10" 175 "26:35:44" 0.25 "Vague" 0.5 "Comparison" -0.5 "'Choose a square with far fewer than 40 dots'" "LtoR" "Small" 1593 7.37337430991005 "Expected"
"368" "s10" 176 "36:45:54" 0.75 "Crisp" -0.5 "Comparison" -0.5 "'Choose a square with fewer than 50 dots'" "RtoL" "Small" 1691 7.43307534889858 "Expected"
"369" "s10" 177 "06:15:24" -0.75 "Crisp" -0.5 "Comparison" -0.5 "'Choose a square with more than 10 dots'" "LtoR" "Large" 1553 7.34794382314869 "Expected"
"370" "s10" 178 "16:25:34" -0.25 "Vague" 0.5 "Comparison" -0.5 "'Choose a square with far fewer than 30 dots'" "LtoR" "Small" 2495 7.82204400818562 "Expected"
"371" "s10" 179 "26:35:44" 0.25 "Crisp" -0.5 "Matching" 0.5 "'Choose a square with 26 dots'" "RtoL" "Small" 7969 8.98331429339775 "Expected"
"372" "s10" 180 "36:45:54" 0.75 "Vague" 0.5 "Comparison" -0.5 "'Choose a square with far fewer than 50 dots'" "LtoR" "Small" 2359 7.76599307940768 "Expected"
"373" "s10" 181 "06:15:24" -0.75 "Vague" 0.5 "Matching" 0.5 "'Choose a square with about 10 dots'" "LtoR" "Small" 6872 8.83521046366409 "Expected"
"374" "s10" 182 "16:25:34" -0.25 "Vague" 0.5 "Matching" 0.5 "'Choose a square with about 30 dots'" "RtoL" "Large" 3449 8.14583961293684 "Near"
"375" "s10" 183 "26:35:44" 0.25 "Vague" 0.5 "Matching" 0.5 "'Choose a square with about 30 dots'" "LtoR" "Small" 2438 7.79893331004122 "Expected"
"376" "s10" 184 "36:45:54" 0.75 "Crisp" -0.5 "Matching" 0.5 "'Choose a square with 36 dots'" "RtoL" "Small" 5766 8.65973387819835 "Near"
"377" "s10" 185 "06:15:24" -0.75 "Crisp" -0.5 "Comparison" -0.5 "'Choose a square with fewer than 20 dots'" "LtoR" "Small" 1254 7.13409372119287 "Expected"
"378" "s10" 186 "16:25:34" -0.25 "Crisp" -0.5 "Matching" 0.5 "'Choose a square with 34 dots'" "LtoR" "Large" 8446 9.04144823549389 "Near"
"379" "s10" 187 "26:35:44" 0.25 "Crisp" -0.5 "Matching" 0.5 "'Choose a square with 44 dots'" "RtoL" "Large" 7942 8.9799204116912 "Expected"
"380" "s10" 188 "36:45:54" 0.75 "Crisp" -0.5 "Matching" 0.5 "'Choose a square with 36 dots'" "LtoR" "Small" 3541 8.1721644521119 "Near"
"381" "s10" 189 "06:15:24" -0.75 "Crisp" -0.5 "Comparison" -0.5 "'Choose a square with more than 10 dots'" "RtoL" "Large" 3080 8.03268487596762 "Expected"
"382" "s10" 190 "16:25:34" -0.25 "Vague" 0.5 "Comparison" -0.5 "'Choose a square with far more than 20 dots'" "RtoL" "Large" 1376 7.22693601849329 "Expected"
"383" "s10" 191 "26:35:44" 0.25 "Vague" 0.5 "Matching" 0.5 "'Choose a square with about 40 dots'" "LtoR" "Large" 2567 7.85049318087114 "Expected"
"384" "s10" 192 "36:45:54" 0.75 "Vague" 0.5 "Matching" 0.5 "'Choose a square with about 40 dots'" "RtoL" "Small" 4723 8.46019946989612 "Near"
"385" "s11" 1 "06:15:24" -0.75 "Crisp" -0.5 "Comparison" -0.5 "'Choose a square with more than 10 dots'" "RtoL" "Large" 2741 7.91607809630279 "Expected"
"386" "s11" 2 "16:25:34" -0.25 "Crisp" -0.5 "Comparison" -0.5 "'Choose a square with fewer than 30 dots'" "LtoR" "Small" 2708 7.90396563403217 "Expected"
"387" "s11" 3 "26:35:44" 0.25 "Vague" 0.5 "Matching" 0.5 "'Choose a square with about 30 dots'" "LtoR" "Small" 2430 7.79564653633459 "Expected"
"388" "s11" 4 "36:45:54" 0.75 "Vague" 0.5 "Matching" 0.5 "'Choose a square with about 40 dots'" "RtoL" "Small" 2246 7.71690613529839 "Expected"
"389" "s11" 5 "06:15:24" -0.75 "Crisp" -0.5 "Comparison" -0.5 "'Choose a square with fewer than 20 dots'" "RtoL" "Small" 1635 7.39939808333135 "Expected"
"390" "s11" 6 "16:25:34" -0.25 "Crisp" -0.5 "Comparison" -0.5 "'Choose a square with fewer than 30 dots'" "RtoL" "Small" 1617 7.38832785957711 "Expected"
"391" "s11" 7 "26:35:44" 0.25 "Vague" 0.5 "Comparison" -0.5 "'Choose a square with far more than 30 dots'" "RtoL" "Large" 1719 7.44949800538285 "Expected"
"392" "s11" 8 "36:45:54" 0.75 "Vague" 0.5 "Matching" 0.5 "'Choose a square with about 40 dots'" "LtoR" "Small" 1889 7.54380286750151 "Expected"
"393" "s11" 9 "06:15:24" -0.75 "Vague" 0.5 "Comparison" -0.5 "'Choose a square with far fewer than 20 dots'" "RtoL" "Small" 1416 7.25559127425367 "Expected"
"394" "s11" 10 "16:25:34" -0.25 "Crisp" -0.5 "Matching" 0.5 "'Choose a square with 16 dots'" "RtoL" "Small" 1487 7.30451594646016 "Expected"
"395" "s11" 11 "26:35:44" 0.25 "Crisp" -0.5 "Matching" 0.5 "'Choose a square with 44 dots'" "LtoR" "Large" 1984 7.59287028784482 "Far"
"396" "s11" 12 "36:45:54" 0.75 "Crisp" -0.5 "Matching" 0.5 "'Choose a square with 54 dots'" "LtoR" "Large" 6766 8.81966534934065 "Near"
"397" "s11" 13 "06:15:24" -0.75 "Crisp" -0.5 "Comparison" -0.5 "'Choose a square with fewer than 20 dots'" "LtoR" "Small" 3247 8.08548677210285 "Expected"
"398" "s11" 14 "16:25:34" -0.25 "Crisp" -0.5 "Matching" 0.5 "'Choose a square with 34 dots'" "RtoL" "Large" 2472 7.81278281857758 "Near"
"399" "s11" 15 "26:35:44" 0.25 "Crisp" -0.5 "Matching" 0.5 "'Choose a square with 26 dots'" "LtoR" "Small" 8543 9.05286751315162 "Expected"
"400" "s11" 16 "36:45:54" 0.75 "Crisp" -0.5 "Matching" 0.5 "'Choose a square with 54 dots'" "RtoL" "Large" 2593 7.86057078553866 "Far"
"401" "s11" 17 "06:15:24" -0.75 "Vague" 0.5 "Comparison" -0.5 "'Choose a square with far fewer than 20 dots'" "LtoR" "Small" 2963 7.99395754757357 "Expected"
"402" "s11" 18 "16:25:34" -0.25 "Vague" 0.5 "Comparison" -0.5 "'Choose a square with far more than 20 dots'" "RtoL" "Large" 2754 7.9208096792886 "Expected"
"403" "s11" 19 "26:35:44" 0.25 "Crisp" -0.5 "Comparison" -0.5 "'Choose a square with fewer than 40 dots'" "LtoR" "Small" 1793 7.49164547360513 "Expected"
"404" "s11" 20 "36:45:54" 0.75 "Crisp" -0.5 "Comparison" -0.5 "'Choose a square with more than 40 dots'" "LtoR" "Large" 4543 8.4213428657594 "Expected"
"405" "s11" 21 "06:15:24" -0.75 "Vague" 0.5 "Comparison" -0.5 "'Choose a square with far more than 10 dots'" "LtoR" "Large" 1621 7.39079852173568 "Expected"
"406" "s11" 22 "16:25:34" -0.25 "Crisp" -0.5 "Matching" 0.5 "'Choose a square with 16 dots'" "LtoR" "Small" 2265 7.72533003791713 "Expected"
"407" "s11" 23 "26:35:44" 0.25 "Crisp" -0.5 "Comparison" -0.5 "'Choose a square with more than 30 dots'" "LtoR" "Large" 3045 8.021256180144 "Expected"
"408" "s11" 24 "36:45:54" 0.75 "Crisp" -0.5 "Matching" 0.5 "'Choose a square with 36 dots'" "RtoL" "Small" 1731 7.45645455517621 "Expected"
"409" "s11" 25 "06:15:24" -0.75 "Crisp" -0.5 "Matching" 0.5 "'Choose a square with 6 dots'" "RtoL" "Small" 1797 7.49387388678356 "Expected"
"410" "s11" 26 "16:25:34" -0.25 "Vague" 0.5 "Matching" 0.5 "'Choose a square with about 30 dots'" "LtoR" "Large" 3401 8.1318247850072 "Near"
"411" "s11" 27 "26:35:44" 0.25 "Vague" 0.5 "Matching" 0.5 "'Choose a square with about 30 dots'" "RtoL" "Small" 1728 7.454719949364 "Expected"
"412" "s11" 28 "36:45:54" 0.75 "Crisp" -0.5 "Comparison" -0.5 "'Choose a square with fewer than 50 dots'" "LtoR" "Small" 2076 7.63819824428578 "Expected"
"413" "s11" 29 "06:15:24" -0.75 "Vague" 0.5 "Matching" 0.5 "'Choose a square with about 10 dots'" "RtoL" "Small" 3202 8.07153089355666 "Expected"
"414" "s11" 30 "16:25:34" -0.25 "Vague" 0.5 "Comparison" -0.5 "'Choose a square with far fewer than 30 dots'" "RtoL" "Small" 1334 7.19593722647557 "Expected"
"415" "s11" 31 "26:35:44" 0.25 "Crisp" -0.5 "Comparison" -0.5 "'Choose a square with fewer than 40 dots'" "RtoL" "Small" 1710 7.44424864949671 "Expected"
"416" "s11" 32 "36:45:54" 0.75 "Vague" 0.5 "Comparison" -0.5 "'Choose a square with far more than 40 dots'" "RtoL" "Large" 1473 7.29505641646263 "Expected"
"417" "s11" 33 "06:15:24" -0.75 "Crisp" -0.5 "Comparison" -0.5 "'Choose a square with more than 10 dots'" "LtoR" "Large" 2178 7.68616230349291 "Expected"
"418" "s11" 34 "16:25:34" -0.25 "Vague" 0.5 "Matching" 0.5 "'Choose a square with about 20 dots'" "LtoR" "Small" 2142 7.66949525100769 "Expected"
"419" "s11" 35 "26:35:44" 0.25 "Vague" 0.5 "Comparison" -0.5 "'Choose a square with far more than 30 dots'" "LtoR" "Large" 2954 7.99091546309133 "Expected"
"420" "s11" 36 "36:45:54" 0.75 "Vague" 0.5 "Comparison" -0.5 "'Choose a square with far fewer than 50 dots'" "LtoR" "Small" 2977 7.99867136101578 "Expected"
"421" "s11" 37 "06:15:24" -0.75 "Vague" 0.5 "Matching" 0.5 "'Choose a square with about 20 dots'" "LtoR" "Large" 2432 7.79646924308606 "Near"
"422" "s11" 38 "16:25:34" -0.25 "Vague" 0.5 "Comparison" -0.5 "'Choose a square with far more than 20 dots'" "LtoR" "Large" 1540 7.33953769540767 "Expected"
"423" "s11" 39 "26:35:44" 0.25 "Vague" 0.5 "Comparison" -0.5 "'Choose a square with far fewer than 40 dots'" "LtoR" "Small" 3482 8.15536212032814 "Expected"
"424" "s11" 40 "36:45:54" 0.75 "Vague" 0.5 "Matching" 0.5 "'Choose a square with about 50 dots'" "LtoR" "Large" 3564 8.1786387885907 "Expected"
"425" "s11" 41 "06:15:24" -0.75 "Vague" 0.5 "Matching" 0.5 "'Choose a square with about 10 dots'" "LtoR" "Small" 3162 8.05896001776942 "Expected"
"426" "s11" 42 "16:25:34" -0.25 "Vague" 0.5 "Comparison" -0.5 "'Choose a square with far fewer than 30 dots'" "LtoR" "Small" 2461 7.80832305039106 "Expected"
"427" "s11" 43 "26:35:44" 0.25 "Crisp" -0.5 "Matching" 0.5 "'Choose a square with 26 dots'" "RtoL" "Small" 2509 7.82763954636642 "Expected"
"428" "s11" 44 "36:45:54" 0.75 "Vague" 0.5 "Matching" 0.5 "'Choose a square with about 50 dots'" "RtoL" "Large" 2337 7.75662333453886 "Near"
"429" "s11" 45 "06:15:24" -0.75 "Crisp" -0.5 "Matching" 0.5 "'Choose a square with 24 dots'" "RtoL" "Large" 3662 8.20576472523446 "Near"
"430" "s11" 46 "16:25:34" -0.25 "Vague" 0.5 "Matching" 0.5 "'Choose a square with about 30 dots'" "RtoL" "Large" 7412 8.91085558740525 "Expected"
"431" "s11" 47 "26:35:44" 0.25 "Crisp" -0.5 "Matching" 0.5 "'Choose a square with 44 dots'" "RtoL" "Large" 4264 8.35796296584568 "Expected"
"432" "s11" 48 "36:45:54" 0.75 "Crisp" -0.5 "Matching" 0.5 "'Choose a square with 36 dots'" "LtoR" "Small" 1925 7.56268124672188 "Expected"
"433" "s11" 49 "06:15:24" -0.75 "Vague" 0.5 "Comparison" -0.5 "'Choose a square with far more than 10 dots'" "RtoL" "Large" 2303 7.74196789982069 "Expected"
"434" "s11" 50 "16:25:34" -0.25 "Crisp" -0.5 "Matching" 0.5 "'Choose a square with 34 dots'" "LtoR" "Large" 2759 7.92262357421729 "Expected"
"435" "s11" 51 "26:35:44" 0.25 "Vague" 0.5 "Matching" 0.5 "'Choose a square with about 40 dots'" "RtoL" "Large" 4751 8.46611040118692 "Near"
"436" "s11" 52 "36:45:54" 0.75 "Crisp" -0.5 "Comparison" -0.5 "'Choose a square with fewer than 50 dots'" "RtoL" "Small" 1407 7.24921505711439 "Expected"
"437" "s11" 53 "06:15:24" -0.75 "Crisp" -0.5 "Matching" 0.5 "'Choose a square with 6 dots'" "LtoR" "Small" 2309 7.7445698093545 "Expected"
"438" "s11" 54 "16:25:34" -0.25 "Crisp" -0.5 "Comparison" -0.5 "'Choose a square with more than 20 dots'" "RtoL" "Large" 1926 7.56320059235807 "Expected"
"439" "s11" 55 "26:35:44" 0.25 "Vague" 0.5 "Matching" 0.5 "'Choose a square with about 40 dots'" "LtoR" "Large" 7831 8.96584549475094 "Expected"
"440" "s11" 56 "36:45:54" 0.75 "Vague" 0.5 "Comparison" -0.5 "'Choose a square with far fewer than 50 dots'" "RtoL" "Small" 2844 7.95296679092313 "Expected"
"441" "s11" 57 "06:15:24" -0.75 "Crisp" -0.5 "Matching" 0.5 "'Choose a square with 24 dots'" "LtoR" "Large" 4836 8.48384321173468 "Expected"
"442" "s11" 58 "16:25:34" -0.25 "Vague" 0.5 "Matching" 0.5 "'Choose a square with about 20 dots'" "RtoL" "Small" 4955 8.50815244676409 "Near"
"443" "s11" 59 "26:35:44" 0.25 "Vague" 0.5 "Comparison" -0.5 "'Choose a square with far fewer than 40 dots'" "RtoL" "Small" 1694 7.434847875212 "Expected"
"444" "s11" 60 "36:45:54" 0.75 "Crisp" -0.5 "Comparison" -0.5 "'Choose a square with more than 40 dots'" "RtoL" "Large" 3519 8.16593213732158 "Expected"
"445" "s11" 61 "06:15:24" -0.75 "Vague" 0.5 "Matching" 0.5 "'Choose a square with about 20 dots'" "RtoL" "Large" 5311 8.5775354204224 "Expected"
"446" "s11" 62 "16:25:34" -0.25 "Crisp" -0.5 "Comparison" -0.5 "'Choose a square with more than 20 dots'" "LtoR" "Large" 2270 7.72753511047545 "Expected"
"447" "s11" 63 "26:35:44" 0.25 "Crisp" -0.5 "Comparison" -0.5 "'Choose a square with more than 30 dots'" "RtoL" "Large" 1404 7.24708058458576 "Expected"
"448" "s11" 64 "36:45:54" 0.75 "Vague" 0.5 "Comparison" -0.5 "'Choose a square with far more than 40 dots'" "LtoR" "Large" 2484 7.81762544305337 "Expected"
"449" "s11" 65 "06:15:24" -0.75 "Crisp" -0.5 "Matching" 0.5 "'Choose a square with 6 dots'" "RtoL" "Small" 2768 7.92588031673756 "Expected"
"450" "s11" 66 "16:25:34" -0.25 "Vague" 0.5 "Comparison" -0.5 "'Choose a square with far more than 20 dots'" "LtoR" "Large" 2192 7.69256964806791 "Expected"
"451" "s11" 67 "26:35:44" 0.25 "Crisp" -0.5 "Matching" 0.5 "'Choose a square with 26 dots'" "RtoL" "Small" 1942 7.57147364885127 "Near"
"452" "s11" 68 "36:45:54" 0.75 "Crisp" -0.5 "Matching" 0.5 "'Choose a square with 36 dots'" "RtoL" "Small" 2922 7.98002359231065 "Near"
"453" "s11" 69 "06:15:24" -0.75 "Vague" 0.5 "Matching" 0.5 "'Choose a square with about 10 dots'" "LtoR" "Small" 2930 7.98275770201111 "Expected"
"454" "s11" 70 "16:25:34" -0.25 "Vague" 0.5 "Comparison" -0.5 "'Choose a square with far fewer than 30 dots'" "LtoR" "Small" 1640 7.40245152081824 "Expected"
"455" "s11" 71 "26:35:44" 0.25 "Crisp" -0.5 "Comparison" -0.5 "'Choose a square with more than 30 dots'" "LtoR" "Large" 2008 7.60489448081162 "Expected"
"456" "s11" 72 "36:45:54" 0.75 "Crisp" -0.5 "Matching" 0.5 "'Choose a square with 54 dots'" "LtoR" "Large" 4250 8.35467426191846 "Near"
"457" "s11" 73 "06:15:24" -0.75 "Crisp" -0.5 "Comparison" -0.5 "'Choose a square with fewer than 20 dots'" "RtoL" "Small" 1711 7.44483327389219 "Expected"
"458" "s11" 74 "16:25:34" -0.25 "Vague" 0.5 "Matching" 0.5 "'Choose a square with about 20 dots'" "LtoR" "Small" 5808 8.66699155650463 "Near"
"459" "s11" 75 "26:35:44" 0.25 "Vague" 0.5 "Comparison" -0.5 "'Choose a square with far fewer than 40 dots'" "LtoR" "Small" 2299 7.74022952476318 "Expected"
"460" "s11" 76 "36:45:54" 0.75 "Crisp" -0.5 "Comparison" -0.5 "'Choose a square with more than 40 dots'" "RtoL" "Large" 1286 7.15929190479756 "Expected"
"461" "s11" 77 "06:15:24" -0.75 "Crisp" -0.5 "Comparison" -0.5 "'Choose a square with more than 10 dots'" "LtoR" "Large" 2285 7.7341213033283 "Expected"
"462" "s11" 78 "16:25:34" -0.25 "Crisp" -0.5 "Matching" 0.5 "'Choose a square with 34 dots'" "LtoR" "Large" 1790 7.4899708988348 "Near"
"463" "s11" 79 "26:35:44" 0.25 "Crisp" -0.5 "Matching" 0.5 "'Choose a square with 44 dots'" "RtoL" "Large" 3049 8.02256894698825 "Expected"
"464" "s11" 80 "36:45:54" 0.75 "Vague" 0.5 "Matching" 0.5 "'Choose a square with about 50 dots'" "LtoR" "Large" 4877 8.49228555571005 "Near"
"465" "s11" 81 "06:15:24" -0.75 "Vague" 0.5 "Matching" 0.5 "'Choose a square with about 20 dots'" "LtoR" "Large" 3342 8.11432470915534 "Near"
"466" "s11" 82 "16:25:34" -0.25 "Crisp" -0.5 "Comparison" -0.5 "'Choose a square with more than 20 dots'" "RtoL" "Large" 2135 7.66622192566273 "Expected"
"467" "s11" 83 "26:35:44" 0.25 "Crisp" -0.5 "Comparison" -0.5 "'Choose a square with more than 30 dots'" "RtoL" "Large" 2650 7.88231491898027 "Expected"
"468" "s11" 84 "36:45:54" 0.75 "Vague" 0.5 "Comparison" -0.5 "'Choose a square with far more than 40 dots'" "LtoR" "Large" 3509 8.16308637558322 "Expected"
"469" "s11" 85 "06:15:24" -0.75 "Crisp" -0.5 "Comparison" -0.5 "'Choose a square with more than 10 dots'" "RtoL" "Large" 3066 8.02812905943176 "Expected"
"470" "s11" 86 "16:25:34" -0.25 "Crisp" -0.5 "Comparison" -0.5 "'Choose a square with fewer than 30 dots'" "LtoR" "Small" 1794 7.49220304261874 "Expected"
"471" "s11" 87 "26:35:44" 0.25 "Crisp" -0.5 "Comparison" -0.5 "'Choose a square with fewer than 40 dots'" "LtoR" "Small" 2317 7.74802852443238 "Expected"
"472" "s11" 88 "36:45:54" 0.75 "Crisp" -0.5 "Matching" 0.5 "'Choose a square with 54 dots'" "RtoL" "Large" 4539 8.42046200245647 "Near"
"473" "s11" 89 "06:15:24" -0.75 "Crisp" -0.5 "Matching" 0.5 "'Choose a square with 24 dots'" "LtoR" "Large" 4645 8.44354665124794 "Expected"
"474" "s11" 90 "16:25:34" -0.25 "Vague" 0.5 "Matching" 0.5 "'Choose a square with about 30 dots'" "RtoL" "Large" 2388 7.77821147451249 "Expected"
"475" "s11" 91 "26:35:44" 0.25 "Crisp" -0.5 "Comparison" -0.5 "'Choose a square with fewer than 40 dots'" "RtoL" "Small" 2796 7.9359451033537 "Expected"
"476" "s11" 92 "36:45:54" 0.75 "Vague" 0.5 "Matching" 0.5 "'Choose a square with about 40 dots'" "LtoR" "Small" 3313 8.1056094022999 "Near"
"477" "s11" 93 "06:15:24" -0.75 "Vague" 0.5 "Matching" 0.5 "'Choose a square with about 20 dots'" "RtoL" "Large" 2234 7.71154897962915 "Expected"
"478" "s11" 94 "16:25:34" -0.25 "Crisp" -0.5 "Comparison" -0.5 "'Choose a square with fewer than 30 dots'" "RtoL" "Small" 3660 8.20521842639541 "Expected"
"479" "s11" 95 "26:35:44" 0.25 "Vague" 0.5 "Comparison" -0.5 "'Choose a square with far more than 30 dots'" "RtoL" "Large" 1905 7.5522372875608 "Expected"
"480" "s11" 96 "36:45:54" 0.75 "Vague" 0.5 "Matching" 0.5 "'Choose a square with about 50 dots'" "RtoL" "Large" 4252 8.35514473946184 "Near"
"481" "s11" 97 "06:15:24" -0.75 "Crisp" -0.5 "Comparison" -0.5 "'Choose a square with fewer than 20 dots'" "LtoR" "Small" 2842 7.95226330865705 "Expected"
"482" "s11" 98 "16:25:34" -0.25 "Vague" 0.5 "Matching" 0.5 "'Choose a square with about 20 dots'" "RtoL" "Small" 1657 7.41276401742656 "Expected"
"483" "s11" 99 "26:35:44" 0.25 "Vague" 0.5 "Comparison" -0.5 "'Choose a square with far fewer than 40 dots'" "RtoL" "Small" 1481 7.3004728142678 "Expected"
"484" "s11" 100 "36:45:54" 0.75 "Vague" 0.5 "Matching" 0.5 "'Choose a square with about 40 dots'" "RtoL" "Small" 4061 8.3091845276863 "Near"
"485" "s11" 101 "06:15:24" -0.75 "Vague" 0.5 "Comparison" -0.5 "'Choose a square with far more than 10 dots'" "RtoL" "Large" 4667 8.44827174594982 "Expected"
"486" "s11" 102 "16:25:34" -0.25 "Vague" 0.5 "Matching" 0.5 "'Choose a square with about 30 dots'" "LtoR" "Large" 4080 8.31385226739821 "Expected"
"487" "s11" 103 "26:35:44" 0.25 "Vague" 0.5 "Matching" 0.5 "'Choose a square with about 30 dots'" "LtoR" "Small" 2843 7.952615111651 "Near"
"488" "s11" 104 "36:45:54" 0.75 "Crisp" -0.5 "Comparison" -0.5 "'Choose a square with fewer than 50 dots'" "LtoR" "Small" 2467 7.81075811652936 "Near"
"489" "s11" 105 "06:15:24" -0.75 "Vague" 0.5 "Comparison" -0.5 "'Choose a square with far fewer than 20 dots'" "RtoL" "Small" 1582 7.3664451483276 "Expected"
"490" "s11" 106 "16:25:34" -0.25 "Vague" 0.5 "Comparison" -0.5 "'Choose a square with far fewer than 30 dots'" "RtoL" "Small" 1584 7.36770857237437 "Expected"
"491" "s11" 107 "26:35:44" 0.25 "Vague" 0.5 "Matching" 0.5 "'Choose a square with about 30 dots'" "RtoL" "Small" 2216 7.70345904786717 "Expected"
"492" "s11" 108 "36:45:54" 0.75 "Vague" 0.5 "Comparison" -0.5 "'Choose a square with far more than 40 dots'" "RtoL" "Large" 1740 7.46164039220858 "Expected"
"493" "s11" 109 "06:15:24" -0.75 "Vague" 0.5 "Comparison" -0.5 "'Choose a square with far fewer than 20 dots'" "LtoR" "Small" 1580 7.36518012602101 "Expected"
"494" "s11" 110 "16:25:34" -0.25 "Crisp" -0.5 "Matching" 0.5 "'Choose a square with 16 dots'" "RtoL" "Small" 1571 7.35946763825562 "Expected"
"495" "s11" 111 "26:35:44" 0.25 "Vague" 0.5 "Matching" 0.5 "'Choose a square with about 40 dots'" "RtoL" "Large" 5533 8.61848544289811 "Expected"
"496" "s11" 112 "36:45:54" 0.75 "Crisp" -0.5 "Matching" 0.5 "'Choose a square with 36 dots'" "LtoR" "Small" 2779 7.9298464297425 "Near"
"497" "s11" 113 "06:15:24" -0.75 "Crisp" -0.5 "Matching" 0.5 "'Choose a square with 24 dots'" "RtoL" "Large" 4505 8.41294317004244 "Expected"
"498" "s11" 114 "16:25:34" -0.25 "Crisp" -0.5 "Matching" 0.5 "'Choose a square with 16 dots'" "LtoR" "Small" 2366 7.76895604453833 "Expected"
"499" "s11" 115 "26:35:44" 0.25 "Vague" 0.5 "Matching" 0.5 "'Choose a square with about 40 dots'" "LtoR" "Large" 2254 7.72046169459972 "Expected"
"500" "s11" 116 "36:45:54" 0.75 "Crisp" -0.5 "Comparison" -0.5 "'Choose a square with fewer than 50 dots'" "RtoL" "Small" 3606 8.19035440376326 "Expected"
"501" "s11" 117 "06:15:24" -0.75 "Vague" 0.5 "Comparison" -0.5 "'Choose a square with far more than 10 dots'" "LtoR" "Large" 1990 7.59588991771854 "Expected"
"502" "s11" 118 "16:25:34" -0.25 "Crisp" -0.5 "Matching" 0.5 "'Choose a square with 34 dots'" "RtoL" "Large" 2458 7.80710329012598 "Expected"
"503" "s11" 119 "26:35:44" 0.25 "Crisp" -0.5 "Matching" 0.5 "'Choose a square with 44 dots'" "LtoR" "Large" 3909 8.27103686579295 "Near"
"504" "s11" 120 "36:45:54" 0.75 "Vague" 0.5 "Comparison" -0.5 "'Choose a square with far fewer than 50 dots'" "RtoL" "Small" 1833 7.5137092478397 "Expected"
"505" "s11" 121 "06:15:24" -0.75 "Vague" 0.5 "Matching" 0.5 "'Choose a square with about 10 dots'" "RtoL" "Small" 3849 8.25556865328375 "Expected"
"506" "s11" 122 "16:25:34" -0.25 "Crisp" -0.5 "Comparison" -0.5 "'Choose a square with more than 20 dots'" "LtoR" "Large" 2559 7.84737183615979 "Expected"
"507" "s11" 123 "26:35:44" 0.25 "Vague" 0.5 "Comparison" -0.5 "'Choose a square with far more than 30 dots'" "LtoR" "Large" 2670 7.8898337513943 "Expected"
"508" "s11" 124 "36:45:54" 0.75 "Vague" 0.5 "Comparison" -0.5 "'Choose a square with far fewer than 50 dots'" "LtoR" "Small" 3140 8.0519780789023 "Expected"
"509" "s11" 125 "06:15:24" -0.75 "Crisp" -0.5 "Matching" 0.5 "'Choose a square with 6 dots'" "LtoR" "Small" 2379 7.77443551030296 "Expected"
"510" "s11" 126 "16:25:34" -0.25 "Vague" 0.5 "Comparison" -0.5 "'Choose a square with far more than 20 dots'" "RtoL" "Large" 1848 7.52185925220163 "Expected"
"511" "s11" 127 "26:35:44" 0.25 "Crisp" -0.5 "Matching" 0.5 "'Choose a square with 26 dots'" "LtoR" "Small" 2056 7.62851762657506 "Expected"
"512" "s11" 128 "36:45:54" 0.75 "Crisp" -0.5 "Comparison" -0.5 "'Choose a square with more than 40 dots'" "LtoR" "Large" 5715 8.65084957622891 "Expected"
"513" "s11" 129 "06:15:24" -0.75 "Crisp" -0.5 "Comparison" -0.5 "'Choose a square with fewer than 20 dots'" "LtoR" "Small" 2275 7.72973533138505 "Expected"
"514" "s11" 130 "16:25:34" -0.25 "Crisp" -0.5 "Matching" 0.5 "'Choose a square with 16 dots'" "RtoL" "Small" 1623 7.39203156751459 "Expected"
"515" "s11" 131 "26:35:44" 0.25 "Vague" 0.5 "Comparison" -0.5 "'Choose a square with far more than 30 dots'" "LtoR" "Large" 3396 8.13035354743124 "Expected"
"516" "s11" 132 "36:45:54" 0.75 "Vague" 0.5 "Matching" 0.5 "'Choose a square with about 50 dots'" "LtoR" "Large" 3050 8.02289686960146 "Expected"
"517" "s11" 133 "06:15:24" -0.75 "Vague" 0.5 "Comparison" -0.5 "'Choose a square with far more than 10 dots'" "LtoR" "Large" 1868 7.53262361878879 "Expected"
"518" "s11" 134 "16:25:34" -0.25 "Crisp" -0.5 "Comparison" -0.5 "'Choose a square with fewer than 30 dots'" "RtoL" "Small" 3077 8.03171037532204 "Expected"
"519" "s11" 135 "26:35:44" 0.25 "Vague" 0.5 "Matching" 0.5 "'Choose a square with about 40 dots'" "LtoR" "Large" 1894 7.54644627374602 "Expected"
"520" "s11" 136 "36:45:54" 0.75 "Crisp" -0.5 "Matching" 0.5 "'Choose a square with 36 dots'" "RtoL" "Small" 4083 8.31458729131958 "Near"
"521" "s11" 137 "06:15:24" -0.75 "Crisp" -0.5 "Comparison" -0.5 "'Choose a square with more than 10 dots'" "LtoR" "Large" 2879 7.96519829061218 "Expected"
"522" "s11" 138 "16:25:34" -0.25 "Vague" 0.5 "Comparison" -0.5 "'Choose a square with far more than 20 dots'" "LtoR" "Large" 2324 7.7510451179718 "Expected"
"523" "s11" 139 "26:35:44" 0.25 "Crisp" -0.5 "Matching" 0.5 "'Choose a square with 44 dots'" "RtoL" "Large" 1558 7.35115822643069 "Expected"
"524" "s11" 140 "36:45:54" 0.75 "Vague" 0.5 "Matching" 0.5 "'Choose a square with about 40 dots'" "RtoL" "Small" 4530 8.41847721847708 "Near"
"525" "s11" 141 "06:15:24" -0.75 "Vague" 0.5 "Comparison" -0.5 "'Choose a square with far fewer than 20 dots'" "RtoL" "Small" 1921 7.56060116276856 "Expected"
"526" "s11" 142 "16:25:34" -0.25 "Crisp" -0.5 "Matching" 0.5 "'Choose a square with 34 dots'" "RtoL" "Large" 1845 7.52023455647463 "Expected"
"527" "s11" 143 "26:35:44" 0.25 "Crisp" -0.5 "Comparison" -0.5 "'Choose a square with more than 30 dots'" "LtoR" "Large" 1742 7.46278915741245 "Expected"
"528" "s11" 144 "36:45:54" 0.75 "Crisp" -0.5 "Matching" 0.5 "'Choose a square with 36 dots'" "LtoR" "Small" 6149 8.72404474595347 "Near"
"529" "s11" 145 "06:15:24" -0.75 "Crisp" -0.5 "Matching" 0.5 "'Choose a square with 6 dots'" "RtoL" "Small" 1678 7.42535788702715 "Expected"
"530" "s11" 146 "16:25:34" -0.25 "Crisp" -0.5 "Matching" 0.5 "'Choose a square with 16 dots'" "LtoR" "Small" 1468 7.29165620917446 "Expected"
"531" "s11" 147 "26:35:44" 0.25 "Vague" 0.5 "Comparison" -0.5 "'Choose a square with far fewer than 40 dots'" "LtoR" "Small" 2516 7.83042561782033 "Expected"
"532" "s11" 148 "36:45:54" 0.75 "Crisp" -0.5 "Comparison" -0.5 "'Choose a square with more than 40 dots'" "LtoR" "Large" 1678 7.42535788702715 "Expected"
"533" "s11" 149 "06:15:24" -0.75 "Vague" 0.5 "Matching" 0.5 "'Choose a square with about 20 dots'" "LtoR" "Large" 7166 8.8771028978649 "Expected"
"534" "s11" 150 "16:25:34" -0.25 "Crisp" -0.5 "Comparison" -0.5 "'Choose a square with more than 20 dots'" "RtoL" "Large" 1599 7.37713371283395 "Expected"
"535" "s11" 151 "26:35:44" 0.25 "Vague" 0.5 "Matching" 0.5 "'Choose a square with about 30 dots'" "RtoL" "Small" 9999 9.21024036697585 "Far"
"536" "s11" 152 "36:45:54" 0.75 "Crisp" -0.5 "Comparison" -0.5 "'Choose a square with fewer than 50 dots'" "LtoR" "Small" 3448 8.14554963178358 "Expected"
"537" "s11" 153 "06:15:24" -0.75 "Vague" 0.5 "Matching" 0.5 "'Choose a square with about 20 dots'" "RtoL" "Large" 2494 7.82164312623998 "Expected"
"538" "s11" 154 "16:25:34" -0.25 "Vague" 0.5 "Comparison" -0.5 "'Choose a square with far fewer than 30 dots'" "RtoL" "Small" 2571 7.85205020726589 "Expected"
"539" "s11" 155 "26:35:44" 0.25 "Vague" 0.5 "Matching" 0.5 "'Choose a square with about 30 dots'" "LtoR" "Small" 3582 8.18367658262066 "Near"
"540" "s11" 156 "36:45:54" 0.75 "Vague" 0.5 "Comparison" -0.5 "'Choose a square with far more than 40 dots'" "LtoR" "Large" 1979 7.59034694560257 "Expected"
"541" "s11" 157 "06:15:24" -0.75 "Crisp" -0.5 "Matching" 0.5 "'Choose a square with 24 dots'" "RtoL" "Large" 2956 7.99159228206809 "Expected"
"542" "s11" 158 "16:25:34" -0.25 "Vague" 0.5 "Matching" 0.5 "'Choose a square with about 30 dots'" "RtoL" "Large" 8465 9.04369529456724 "Expected"
"543" "s11" 159 "26:35:44" 0.25 "Crisp" -0.5 "Matching" 0.5 "'Choose a square with 44 dots'" "LtoR" "Large" 1629 7.39572160860205 "Expected"
"544" "s11" 160 "36:45:54" 0.75 "Vague" 0.5 "Comparison" -0.5 "'Choose a square with far more than 40 dots'" "RtoL" "Large" 4791 8.47449443688312 "Expected"
"545" "s11" 161 "06:15:24" -0.75 "Crisp" -0.5 "Matching" 0.5 "'Choose a square with 6 dots'" "LtoR" "Small" 2348 7.76131918094799 "Expected"
"546" "s11" 162 "16:25:34" -0.25 "Crisp" -0.5 "Comparison" -0.5 "'Choose a square with fewer than 30 dots'" "LtoR" "Small" 3779 8.23721470334949 "Expected"
"547" "s11" 163 "26:35:44" 0.25 "Vague" 0.5 "Comparison" -0.5 "'Choose a square with far more than 30 dots'" "RtoL" "Large" 2798 7.93666015522543 "Expected"
"548" "s11" 164 "36:45:54" 0.75 "Crisp" -0.5 "Matching" 0.5 "'Choose a square with 54 dots'" "LtoR" "Large" 1675 7.42356844425917 "Expected"
"549" "s11" 165 "06:15:24" -0.75 "Vague" 0.5 "Comparison" -0.5 "'Choose a square with far more than 10 dots'" "RtoL" "Large" 2723 7.90948949267376 "Expected"
"550" "s11" 166 "16:25:34" -0.25 "Crisp" -0.5 "Matching" 0.5 "'Choose a square with 34 dots'" "LtoR" "Large" 1456 7.28344822875663 "Expected"
"551" "s11" 167 "26:35:44" 0.25 "Crisp" -0.5 "Comparison" -0.5 "'Choose a square with more than 30 dots'" "RtoL" "Large" 1448 7.27793857294566 "Expected"
"552" "s11" 168 "36:45:54" 0.75 "Crisp" -0.5 "Comparison" -0.5 "'Choose a square with fewer than 50 dots'" "RtoL" "Small" 1770 7.47873482556787 "Expected"
"553" "s11" 169 "06:15:24" -0.75 "Crisp" -0.5 "Matching" 0.5 "'Choose a square with 24 dots'" "LtoR" "Large" 2813 7.94200680848986 "Expected"
"554" "s11" 170 "16:25:34" -0.25 "Vague" 0.5 "Comparison" -0.5 "'Choose a square with far more than 20 dots'" "RtoL" "Large" 1419 7.25770767716004 "Expected"
"555" "s11" 171 "26:35:44" 0.25 "Vague" 0.5 "Comparison" -0.5 "'Choose a square with far fewer than 40 dots'" "RtoL" "Small" 1993 7.59739632021279 "Expected"
"556" "s11" 172 "36:45:54" 0.75 "Crisp" -0.5 "Matching" 0.5 "'Choose a square with 54 dots'" "RtoL" "Large" 1460 7.28619171470238 "Expected"
"557" "s11" 173 "06:15:24" -0.75 "Vague" 0.5 "Matching" 0.5 "'Choose a square with about 10 dots'" "LtoR" "Small" 7029 8.85779972717591 "Expected"
"558" "s11" 174 "16:25:34" -0.25 "Vague" 0.5 "Comparison" -0.5 "'Choose a square with far fewer than 30 dots'" "LtoR" "Small" 2855 7.95682712209011 "Expected"
"559" "s11" 175 "26:35:44" 0.25 "Crisp" -0.5 "Matching" 0.5 "'Choose a square with 26 dots'" "RtoL" "Small" 2673 7.89095671613892 "Expected"
"560" "s11" 176 "36:45:54" 0.75 "Crisp" -0.5 "Comparison" -0.5 "'Choose a square with more than 40 dots'" "RtoL" "Large" 2181 7.68753876620163 "Expected"
"561" "s11" 177 "06:15:24" -0.75 "Crisp" -0.5 "Comparison" -0.5 "'Choose a square with more than 10 dots'" "RtoL" "Large" 1569 7.35819375273303 "Expected"
"562" "s11" 178 "16:25:34" -0.25 "Vague" 0.5 "Matching" 0.5 "'Choose a square with about 20 dots'" "LtoR" "Small" 8840 9.08704215563169 "Far"
"563" "s11" 179 "26:35:44" 0.25 "Crisp" -0.5 "Matching" 0.5 "'Choose a square with 26 dots'" "LtoR" "Small" 2271 7.72797554210556 "Expected"
"564" "s11" 180 "36:45:54" 0.75 "Vague" 0.5 "Matching" 0.5 "'Choose a square with about 50 dots'" "RtoL" "Large" 2100 7.64969262371151 "Expected"
"565" "s11" 181 "06:15:24" -0.75 "Vague" 0.5 "Comparison" -0.5 "'Choose a square with far fewer than 20 dots'" "LtoR" "Small" 1426 7.26262860097424 "Expected"
"566" "s11" 182 "16:25:34" -0.25 "Vague" 0.5 "Matching" 0.5 "'Choose a square with about 30 dots'" "LtoR" "Large" 6029 8.70433643848941 "Expected"
"567" "s11" 183 "26:35:44" 0.25 "Crisp" -0.5 "Comparison" -0.5 "'Choose a square with fewer than 40 dots'" "LtoR" "Small" 3324 8.10892415597534 "Expected"
"568" "s11" 184 "36:45:54" 0.75 "Vague" 0.5 "Matching" 0.5 "'Choose a square with about 40 dots'" "LtoR" "Small" 5330 8.58110651715989 "Near"
"569" "s11" 185 "06:15:24" -0.75 "Crisp" -0.5 "Comparison" -0.5 "'Choose a square with fewer than 20 dots'" "RtoL" "Small" 1341 7.20117088328168 "Expected"
"570" "s11" 186 "16:25:34" -0.25 "Vague" 0.5 "Matching" 0.5 "'Choose a square with about 20 dots'" "RtoL" "Small" 1276 7.15148546390474 "Expected"
"571" "s11" 187 "26:35:44" 0.25 "Crisp" -0.5 "Comparison" -0.5 "'Choose a square with fewer than 40 dots'" "RtoL" "Small" 2882 7.96623977655947 "Expected"
"572" "s11" 188 "36:45:54" 0.75 "Vague" 0.5 "Comparison" -0.5 "'Choose a square with far fewer than 50 dots'" "LtoR" "Small" 5381 8.59062950948942 "Expected"
"573" "s11" 189 "06:15:24" -0.75 "Vague" 0.5 "Matching" 0.5 "'Choose a square with about 10 dots'" "RtoL" "Small" 3599 8.18841130807903 "Expected"
"574" "s11" 190 "16:25:34" -0.25 "Crisp" -0.5 "Comparison" -0.5 "'Choose a square with more than 20 dots'" "LtoR" "Large" 2635 7.87663846097546 "Expected"
"575" "s11" 191 "26:35:44" 0.25 "Vague" 0.5 "Matching" 0.5 "'Choose a square with about 40 dots'" "RtoL" "Large" 3030 8.01631789850341 "Expected"
"576" "s11" 192 "36:45:54" 0.75 "Vague" 0.5 "Comparison" -0.5 "'Choose a square with far fewer than 50 dots'" "RtoL" "Small" 1490 7.30653139893951 "Expected"
"577" "s12" 1 "06:15:24" -0.75 "Vague" 0.5 "Comparison" -0.5 "'Choose a square with far fewer than 20 dots'" "RtoL" "Small" 2512 7.82883452758809 "Expected"
"578" "s12" 2 "16:25:34" -0.25 "Vague" 0.5 "Matching" 0.5 "'Choose a square with about 30 dots'" "LtoR" "Large" 1486 7.3038432252777 "Expected"
"579" "s12" 3 "26:35:44" 0.25 "Vague" 0.5 "Comparison" -0.5 "'Choose a square with far fewer than 40 dots'" "LtoR" "Small" 1636 7.40000951716269 "Expected"
"580" "s12" 4 "36:45:54" 0.75 "Vague" 0.5 "Comparison" -0.5 "'Choose a square with far fewer than 50 dots'" "LtoR" "Small" 1583 7.36707705988101 "Expected"
"581" "s12" 5 "06:15:24" -0.75 "Crisp" -0.5 "Comparison" -0.5 "'Choose a square with fewer than 20 dots'" "LtoR" "Small" 1256 7.13568734702814 "Expected"
"582" "s12" 6 "16:25:34" -0.25 "Crisp" -0.5 "Comparison" -0.5 "'Choose a square with fewer than 30 dots'" "LtoR" "Small" 1581 7.36581283720947 "Expected"
"583" "s12" 7 "26:35:44" 0.25 "Vague" 0.5 "Matching" 0.5 "'Choose a square with about 40 dots'" "RtoL" "Large" 1443 7.27447955877387 "Expected"
"584" "s12" 8 "36:45:54" 0.75 "Vague" 0.5 "Matching" 0.5 "'Choose a square with about 40 dots'" "RtoL" "Small" 1788 7.48885295573346 "Near"
"585" "s12" 9 "06:15:24" -0.75 "Crisp" -0.5 "Comparison" -0.5 "'Choose a square with more than 10 dots'" "LtoR" "Large" 1992 7.59689443814454 "Expected"
"586" "s12" 10 "16:25:34" -0.25 "Vague" 0.5 "Comparison" -0.5 "'Choose a square with far fewer than 30 dots'" "RtoL" "Small" 949 6.85540879860993 "Expected"
"587" "s12" 11 "26:35:44" 0.25 "Crisp" -0.5 "Comparison" -0.5 "'Choose a square with fewer than 40 dots'" "LtoR" "Small" 1396 7.24136628332232 "Expected"
"588" "s12" 12 "36:45:54" 0.75 "Crisp" -0.5 "Matching" 0.5 "'Choose a square with 54 dots'" "RtoL" "Large" 2520 7.83201418050547 "Expected"
"589" "s12" 13 "06:15:24" -0.75 "Crisp" -0.5 "Matching" 0.5 "'Choose a square with 6 dots'" "LtoR" "Small" 1280 7.15461535691366 "Expected"
"590" "s12" 14 "16:25:34" -0.25 "Vague" 0.5 "Comparison" -0.5 "'Choose a square with far fewer than 30 dots'" "LtoR" "Small" 958 6.86484777797086 "Expected"
"591" "s12" 15 "26:35:44" 0.25 "Vague" 0.5 "Matching" 0.5 "'Choose a square with about 30 dots'" "RtoL" "Small" 2346 7.76046702921342 "Near"
"592" "s12" 16 "36:45:54" 0.75 "Crisp" -0.5 "Comparison" -0.5 "'Choose a square with fewer than 50 dots'" "RtoL" "Small" 3095 8.0375431851187 "Expected"
"593" "s12" 17 "06:15:24" -0.75 "Vague" 0.5 "Comparison" -0.5 "'Choose a square with far more than 10 dots'" "RtoL" "Large" 1022 6.92951677076365 "Expected"
"594" "s12" 18 "16:25:34" -0.25 "Vague" 0.5 "Comparison" -0.5 "'Choose a square with far more than 20 dots'" "RtoL" "Large" 1381 7.23056315340929 "Expected"
"595" "s12" 19 "26:35:44" 0.25 "Crisp" -0.5 "Comparison" -0.5 "'Choose a square with fewer than 40 dots'" "RtoL" "Small" 1188 7.08002649992259 "Expected"
"596" "s12" 20 "36:45:54" 0.75 "Vague" 0.5 "Matching" 0.5 "'Choose a square with about 50 dots'" "LtoR" "Large" 2149 7.67275789664251 "Expected"
"597" "s12" 21 "06:15:24" -0.75 "Crisp" -0.5 "Matching" 0.5 "'Choose a square with 24 dots'" "LtoR" "Large" 889 6.7900972355139 "Expected"
"598" "s12" 22 "16:25:34" -0.25 "Vague" 0.5 "Comparison" -0.5 "'Choose a square with far more than 20 dots'" "LtoR" "Large" 863 6.76041469108343 "Expected"
"599" "s12" 23 "26:35:44" 0.25 "Crisp" -0.5 "Matching" 0.5 "'Choose a square with 26 dots'" "RtoL" "Small" 1726 7.45356187164337 "Expected"
"600" "s12" 24 "36:45:54" 0.75 "Vague" 0.5 "Comparison" -0.5 "'Choose a square with far more than 40 dots'" "RtoL" "Large" 1749 7.4667994750186 "Expected"
"601" "s12" 25 "06:15:24" -0.75 "Crisp" -0.5 "Comparison" -0.5 "'Choose a square with more than 10 dots'" "RtoL" "Large" 1736 7.4593388952203 "Expected"
"602" "s12" 26 "16:25:34" -0.25 "Crisp" -0.5 "Matching" 0.5 "'Choose a square with 16 dots'" "LtoR" "Small" 2586 7.8578675593318 "Expected"
"603" "s12" 27 "26:35:44" 0.25 "Crisp" -0.5 "Matching" 0.5 "'Choose a square with 44 dots'" "RtoL" "Large" 1330 7.1929342212158 "Expected"
"604" "s12" 28 "36:45:54" 0.75 "Crisp" -0.5 "Comparison" -0.5 "'Choose a square with more than 40 dots'" "LtoR" "Large" 930 6.8351845861473 "Expected"
"605" "s12" 29 "06:15:24" -0.75 "Vague" 0.5 "Comparison" -0.5 "'Choose a square with far fewer than 20 dots'" "LtoR" "Small" 806 6.69208374250663 "Expected"
"606" "s12" 30 "16:25:34" -0.25 "Crisp" -0.5 "Matching" 0.5 "'Choose a square with 34 dots'" "LtoR" "Large" 2331 7.75405263903576 "Expected"
"607" "s12" 31 "26:35:44" 0.25 "Vague" 0.5 "Comparison" -0.5 "'Choose a square with far more than 30 dots'" "LtoR" "Large" 849 6.74405918631135 "Expected"
"608" "s12" 32 "36:45:54" 0.75 "Vague" 0.5 "Comparison" -0.5 "'Choose a square with far fewer than 50 dots'" "RtoL" "Small" 1445 7.27586460054653 "Near"
"609" "s12" 33 "06:15:24" -0.75 "Vague" 0.5 "Matching" 0.5 "'Choose a square with about 10 dots'" "LtoR" "Small" 2504 7.82564473221999 "Near"
"610" "s12" 34 "16:25:34" -0.25 "Crisp" -0.5 "Comparison" -0.5 "'Choose a square with more than 20 dots'" "LtoR" "Large" 972 6.87935580446044 "Expected"
"611" "s12" 35 "26:35:44" 0.25 "Vague" 0.5 "Matching" 0.5 "'Choose a square with about 30 dots'" "LtoR" "Small" 3736 8.22577079934873 "Expected"
"612" "s12" 36 "36:45:54" 0.75 "Crisp" -0.5 "Matching" 0.5 "'Choose a square with 54 dots'" "LtoR" "Large" 2137 7.66715825531915 "Expected"
"613" "s12" 37 "06:15:24" -0.75 "Vague" 0.5 "Matching" 0.5 "'Choose a square with about 20 dots'" "RtoL" "Large" 2349 7.76174498465891 "Expected"
"614" "s12" 38 "16:25:34" -0.25 "Crisp" -0.5 "Matching" 0.5 "'Choose a square with 16 dots'" "RtoL" "Small" 1297 7.16780918431644 "Expected"
"615" "s12" 39 "26:35:44" 0.25 "Crisp" -0.5 "Comparison" -0.5 "'Choose a square with more than 30 dots'" "RtoL" "Large" 1752 7.46851327149634 "Expected"
"616" "s12" 40 "36:45:54" 0.75 "Vague" 0.5 "Comparison" -0.5 "'Choose a square with far more than 40 dots'" "LtoR" "Large" 1696 7.43602781635185 "Expected"
"617" "s12" 41 "06:15:24" -0.75 "Vague" 0.5 "Matching" 0.5 "'Choose a square with about 20 dots'" "LtoR" "Large" 2908 7.97522083865341 "Expected"
"618" "s12" 42 "16:25:34" -0.25 "Crisp" -0.5 "Comparison" -0.5 "'Choose a square with fewer than 30 dots'" "RtoL" "Small" 1154 7.05098944706805 "Expected"
"619" "s12" 43 "26:35:44" 0.25 "Vague" 0.5 "Comparison" -0.5 "'Choose a square with far more than 30 dots'" "RtoL" "Large" 3091 8.03624994213212 "Expected"
"620" "s12" 44 "36:45:54" 0.75 "Vague" 0.5 "Matching" 0.5 "'Choose a square with about 40 dots'" "LtoR" "Small" 2698 7.9002660367677 "Far"
"621" "s12" 45 "06:15:24" -0.75 "Crisp" -0.5 "Matching" 0.5 "'Choose a square with 6 dots'" "RtoL" "Small" 1248 7.12929754892937 "Expected"
"622" "s12" 46 "16:25:34" -0.25 "Vague" 0.5 "Matching" 0.5 "'Choose a square with about 30 dots'" "RtoL" "Large" 1610 7.38398945797851 "Expected"
"623" "s12" 47 "26:35:44" 0.25 "Crisp" -0.5 "Matching" 0.5 "'Choose a square with 26 dots'" "LtoR" "Small" 1604 7.38025578842646 "Near"
"624" "s12" 48 "36:45:54" 0.75 "Crisp" -0.5 "Matching" 0.5 "'Choose a square with 36 dots'" "LtoR" "Small" 2286 7.73455884435476 "Near"
"625" "s12" 49 "06:15:24" -0.75 "Vague" 0.5 "Comparison" -0.5 "'Choose a square with far more than 10 dots'" "LtoR" "Large" 742 6.60934924316738 "Expected"
"626" "s12" 50 "16:25:34" -0.25 "Crisp" -0.5 "Comparison" -0.5 "'Choose a square with more than 20 dots'" "RtoL" "Large" 1107 7.00940893270864 "Expected"
"627" "s12" 51 "26:35:44" 0.25 "Vague" 0.5 "Matching" 0.5 "'Choose a square with about 40 dots'" "LtoR" "Large" 1201 7.09090982207998 "Expected"
"628" "s12" 52 "36:45:54" 0.75 "Crisp" -0.5 "Comparison" -0.5 "'Choose a square with fewer than 50 dots'" "LtoR" "Small" 833 6.72503364216684 "Expected"
"629" "s12" 53 "06:15:24" -0.75 "Crisp" -0.5 "Matching" 0.5 "'Choose a square with 24 dots'" "RtoL" "Large" 806 6.69208374250663 "Expected"
"630" "s12" 54 "16:25:34" -0.25 "Vague" 0.5 "Matching" 0.5 "'Choose a square with about 20 dots'" "RtoL" "Small" 1202 7.09174211509515 "Near"
"631" "s12" 55 "26:35:44" 0.25 "Crisp" -0.5 "Comparison" -0.5 "'Choose a square with more than 30 dots'" "LtoR" "Large" 761 6.63463335786169 "Expected"
"632" "s12" 56 "36:45:54" 0.75 "Crisp" -0.5 "Comparison" -0.5 "'Choose a square with more than 40 dots'" "RtoL" "Large" 1178 7.07157336421153 "Expected"
"633" "s12" 57 "06:15:24" -0.75 "Crisp" -0.5 "Comparison" -0.5 "'Choose a square with fewer than 20 dots'" "RtoL" "Small" 566 6.33859407820318 "Expected"
"634" "s12" 58 "16:25:34" -0.25 "Crisp" -0.5 "Matching" 0.5 "'Choose a square with 34 dots'" "RtoL" "Large" 798 6.68210859744981 "Expected"
"635" "s12" 59 "26:35:44" 0.25 "Crisp" -0.5 "Matching" 0.5 "'Choose a square with 44 dots'" "LtoR" "Large" 889 6.7900972355139 "Expected"
"636" "s12" 60 "36:45:54" 0.75 "Vague" 0.5 "Matching" 0.5 "'Choose a square with about 50 dots'" "RtoL" "Large" 1302 7.17165682276851 "Expected"
"637" "s12" 61 "06:15:24" -0.75 "Vague" 0.5 "Matching" 0.5 "'Choose a square with about 10 dots'" "RtoL" "Small" 7411 8.91072066195136 "Expected"
"638" "s12" 62 "16:25:34" -0.25 "Vague" 0.5 "Matching" 0.5 "'Choose a square with about 20 dots'" "LtoR" "Small" 2802 7.93808872689695 "Near"
"639" "s12" 63 "26:35:44" 0.25 "Vague" 0.5 "Comparison" -0.5 "'Choose a square with far fewer than 40 dots'" "RtoL" "Small" 1579 7.36454701425564 "Expected"
"640" "s12" 64 "36:45:54" 0.75 "Crisp" -0.5 "Matching" 0.5 "'Choose a square with 36 dots'" "RtoL" "Small" 2594 7.86095636487639 "Near"
"641" "s12" 65 "06:15:24" -0.75 "Vague" 0.5 "Matching" 0.5 "'Choose a square with about 20 dots'" "RtoL" "Large" 1322 7.18690102041163 "Expected"
"642" "s12" 66 "16:25:34" -0.25 "Crisp" -0.5 "Matching" 0.5 "'Choose a square with 34 dots'" "LtoR" "Large" 1038 6.94505106372583 "Expected"
"643" "s12" 67 "26:35:44" 0.25 "Vague" 0.5 "Matching" 0.5 "'Choose a square with about 30 dots'" "LtoR" "Small" 1393 7.23921497377981 "Far"
"644" "s12" 68 "36:45:54" 0.75 "Vague" 0.5 "Matching" 0.5 "'Choose a square with about 50 dots'" "LtoR" "Large" 1413 7.25347038268453 "Expected"
"645" "s12" 69 "06:15:24" -0.75 "Vague" 0.5 "Matching" 0.5 "'Choose a square with about 20 dots'" "LtoR" "Large" 1216 7.10332206252611 "Expected"
"646" "s12" 70 "16:25:34" -0.25 "Crisp" -0.5 "Matching" 0.5 "'Choose a square with 16 dots'" "LtoR" "Small" 1841 7.51806418123308 "Expected"
"647" "s12" 71 "26:35:44" 0.25 "Vague" 0.5 "Comparison" -0.5 "'Choose a square with far more than 30 dots'" "LtoR" "Large" 1110 7.01211529430638 "Expected"
"648" "s12" 72 "36:45:54" 0.75 "Crisp" -0.5 "Comparison" -0.5 "'Choose a square with more than 40 dots'" "LtoR" "Large" 1349 7.20711885620776 "Expected"
"649" "s12" 73 "06:15:24" -0.75 "Crisp" -0.5 "Comparison" -0.5 "'Choose a square with more than 10 dots'" "RtoL" "Large" 984 6.89162589705225 "Expected"
"650" "s12" 74 "16:25:34" -0.25 "Crisp" -0.5 "Matching" 0.5 "'Choose a square with 34 dots'" "RtoL" "Large" 1974 7.58781721999343 "Expected"
"651" "s12" 75 "26:35:44" 0.25 "Crisp" -0.5 "Comparison" -0.5 "'Choose a square with more than 30 dots'" "RtoL" "Large" 1211 7.09920174355309 "Expected"
"652" "s12" 76 "36:45:54" 0.75 "Crisp" -0.5 "Comparison" -0.5 "'Choose a square with more than 40 dots'" "RtoL" "Large" 2741 7.91607809630279 "Expected"
"653" "s12" 77 "06:15:24" -0.75 "Crisp" -0.5 "Matching" 0.5 "'Choose a square with 24 dots'" "LtoR" "Large" 1225 7.11069612297883 "Expected"
"654" "s12" 78 "16:25:34" -0.25 "Crisp" -0.5 "Matching" 0.5 "'Choose a square with 16 dots'" "RtoL" "Small" 4751 8.46611040118692 "Expected"
"655" "s12" 79 "26:35:44" 0.25 "Vague" 0.5 "Comparison" -0.5 "'Choose a square with far more than 30 dots'" "RtoL" "Large" 1214 7.10167597161944 "Expected"
"656" "s12" 80 "36:45:54" 0.75 "Vague" 0.5 "Matching" 0.5 "'Choose a square with about 50 dots'" "RtoL" "Large" 3793 8.2409125416889 "Expected"
"657" "s12" 81 "06:15:24" -0.75 "Crisp" -0.5 "Matching" 0.5 "'Choose a square with 6 dots'" "RtoL" "Small" 1428 7.26403014289953 "Expected"
"658" "s12" 82 "16:25:34" -0.25 "Vague" 0.5 "Matching" 0.5 "'Choose a square with about 30 dots'" "RtoL" "Large" 851 6.74641212857337 "Expected"
"659" "s12" 83 "26:35:44" 0.25 "Crisp" -0.5 "Matching" 0.5 "'Choose a square with 26 dots'" "LtoR" "Small" 2719 7.90801944463247 "Near"
"660" "s12" 84 "36:45:54" 0.75 "Vague" 0.5 "Comparison" -0.5 "'Choose a square with far more than 40 dots'" "LtoR" "Large" 868 6.76619171466035 "Expected"
"661" "s12" 85 "06:15:24" -0.75 "Vague" 0.5 "Comparison" -0.5 "'Choose a square with far fewer than 20 dots'" "LtoR" "Small" 2162 7.67878899819915 "Expected"
"662" "s12" 86 "16:25:34" -0.25 "Vague" 0.5 "Comparison" -0.5 "'Choose a square with far more than 20 dots'" "RtoL" "Large" 1030 6.93731408122368 "Expected"
"663" "s12" 87 "26:35:44" 0.25 "Crisp" -0.5 "Matching" 0.5 "'Choose a square with 26 dots'" "RtoL" "Small" 4118 8.32312288758773 "Expected"
"664" "s12" 88 "36:45:54" 0.75 "Crisp" -0.5 "Comparison" -0.5 "'Choose a square with fewer than 50 dots'" "RtoL" "Small" 1271 7.14755927118945 "Expected"
"665" "s12" 89 "06:15:24" -0.75 "Vague" 0.5 "Comparison" -0.5 "'Choose a square with far more than 10 dots'" "RtoL" "Large" 2061 7.63094658089046 "Expected"
"666" "s12" 90 "16:25:34" -0.25 "Crisp" -0.5 "Comparison" -0.5 "'Choose a square with more than 20 dots'" "RtoL" "Large" 1156 7.05272104923232 "Expected"
"667" "s12" 91 "26:35:44" 0.25 "Vague" 0.5 "Matching" 0.5 "'Choose a square with about 30 dots'" "RtoL" "Small" 2719 7.90801944463247 "Far"
"668" "s12" 92 "36:45:54" 0.75 "Vague" 0.5 "Comparison" -0.5 "'Choose a square with far fewer than 50 dots'" "LtoR" "Small" 1647 7.40671073017764 "Expected"
"669" "s12" 93 "06:15:24" -0.75 "Vague" 0.5 "Matching" 0.5 "'Choose a square with about 10 dots'" "RtoL" "Small" 9388 9.14718755697091 "Expected"
"670" "s12" 94 "16:25:34" -0.25 "Vague" 0.5 "Comparison" -0.5 "'Choose a square with far more than 20 dots'" "LtoR" "Large" 1589 7.37086016653672 "Expected"
"671" "s12" 95 "26:35:44" 0.25 "Crisp" -0.5 "Comparison" -0.5 "'Choose a square with fewer than 40 dots'" "RtoL" "Small" 1169 7.06390396147207 "Expected"
"672" "s12" 96 "36:45:54" 0.75 "Crisp" -0.5 "Matching" 0.5 "'Choose a square with 54 dots'" "RtoL" "Large" 1089 6.99301512293296 "Expected"
"673" "s12" 97 "06:15:24" -0.75 "Crisp" -0.5 "Comparison" -0.5 "'Choose a square with more than 10 dots'" "LtoR" "Large" 2436 7.79811262882979 "Expected"
