"Item" "Condition" "Order" "Quantity" "Left" "Mid" "Right" "Instruction" "Subject" "Instruction_RT" "RESPONSE" "RT" "choice" "crossed" "ResponseExpected" "ResponseNear" "ResponseFar" "isResponseExpected" "isResponseNear" "isResponseFar" "switchResponse" "Trial" "c_Trl" "s_Trl" "id" "c_Itm" "item_range_ratio" "item_range_ratio_scaled" "item_mean_ratio" "item_mean_ratio_scaled" "Vagueness" "c_Vag" "Selection" "c_Sel" "c_Ord" "c_Qty" "nchar_instr" "nchar_instr_scaled" "RT_RecSqd" "RT_Rec" "RT_RecSqt" "RT_log" "RT_sqt" "RT_raw" "RT_sqd" "RTprev" "RTprev_RecSqd" "RTprev_Rec" "RTprev_RecSqt0" "RTprev_RecSqt" "RTprev_log" "RTprev_sqt" "RTprev_raw" "RTprev_sqd"
"1" "06:15:24" 3 "RtoL" "Small" 24 15 6 "'Choose a square with far fewer than 20 dots'" "s01" 2662 "RIGHT" 996 6 "Con3:Quan1:Item1" 6 15 24 TRUE FALSE FALSE "Expected" 1 -95.5 -1.72293499409124 "s01:t001" -0.75 0.25 -1.3441995 0.5125 -1.37582241 "Vague" 0.5 "Comparison" -0.5 0.5 -0.5 45 1.33592551964224 1.00804825728617e-06 0.00100401606425703 0.0316862125262239 6.9037472575846 31.559467676119 996 992016 996 1.00804825728617e-06 0.00100401606425703 0.0316862125262239 0.698811816877734 6.9037472575846 31.559467676119 996 992016
"2" "16:25:34" 2 "LtoR" "Large" 16 25 34 "'Choose a square with 34 dots'" "s01" 967 "RIGHT" 1332 34 "Con2:Quan2:Item2" 34 25 16 TRUE FALSE FALSE "Expected" 2 -94.5 -1.70489378996463 "s01:t002" -0.25 0.4705882 -0.1316642 0.6876471 -0.06614191 "Crisp" -0.5 "Matching" 0.5 -0.5 0.5 30 -1.4161957225392 5.63626689752816e-07 0.000750750750750751 0.0273998312175595 7.19443685110033 36.4965751817893 1332 1774224 996 1.00804825728617e-06 0.00100401606425703 0.0316862125262239 0.698811816877734 6.9037472575846 31.559467676119 996 992016
"3" "26:35:44" 3 "LtoR" "Small" 26 35 44 "'Choose a square with far fewer than 40 dots'" "s01" 868 "LEFT" 1083 26 "Con3:Quan1:Item3" 26 35 44 TRUE FALSE FALSE "Expected" 3 -93.5 -1.68685258583802 "s01:t003" 0.25 0.5909091 0.5297187 0.7691558 0.54334858 "Vague" 0.5 "Comparison" -0.5 -0.5 -0.5 45 1.33592551964224 8.52595599413073e-07 0.000923361034164358 0.0303868562731382 6.98749024700099 32.9089653438087 1083 1172889 1332 5.63626689752816e-07 0.000750750750750751 0.0273998312175595 0.171544880242529 7.19443685110033 36.4965751817893 1332 1774224
"4" "36:45:54" 3 "LtoR" "Large" 36 45 54 "'Choose a square with far more than 40 dots'" "s01" 932 "RIGHT" 1234 54 "Con3:Quan2:Item4" 54 45 36 TRUE FALSE FALSE "Expected" 4 -92.5 -1.66881138171141 "s01:t004" 0.75 0.6666667 0.946145 0.8166667 0.89861574 "Vague" 0.5 "Comparison" -0.5 -0.5 0.5 44 1.15245077016348 6.56704028747876e-07 0.000810372771474878 0.0284670471154786 7.11801620446533 35.1283361405006 1234 1522756 1083 8.52595599413073e-07 0.000923361034164358 0.0303868562731382 0.538978255225755 6.98749024700099 32.9089653438087 1083 1172889
"5" "06:15:24" 2 "RtoL" "Large" 24 15 6 "'Choose a square with 24 dots'" "s01" 564 "LEFT" 1369 24 "Con2:Quan2:Item1" 24 15 6 TRUE FALSE FALSE "Expected" 5 -91.5 -1.6507701775848 "s01:t005" -0.75 0.25 -1.3441995 0.5125 -1.37582241 "Crisp" -0.5 "Matching" 0.5 0.5 0.5 30 -1.4161957225392 5.3357208905745e-07 0.000730460189919649 0.027027027027027 7.22183582528845 37 1369 1874161 1234 6.56704028747876e-07 0.000810372771474878 0.0284670471154786 0.302822901655773 7.11801620446533 35.1283361405006 1234 1522756
"6" "16:25:34" 4 "LtoR" "Large" 16 25 34 "'Choose a square with more than 20 dots'" "s01" 734 "RIGHT" 971 34 "Con4:Quan2:Item2" 34 25 16 TRUE FALSE FALSE "Expected" 6 -90.5 -1.63272897345819 "s01:t006" -0.25 0.4705882 -0.1316642 0.6876471 -0.06614191 "Crisp" -0.5 "Comparison" -0.5 -0.5 0.5 40 0.418551772248428 1.06062421977831e-06 0.00102986611740474 0.032091527190284 6.87832646829133 31.1608729017658 971 942841 1369 5.3357208905745e-07 0.000730460189919649 0.027027027027027 0.125686308792174 7.22183582528845 37 1369 1874161
"7" "26:35:44" 3 "RtoL" "Large" 44 35 26 "'Choose a square with far more than 30 dots'" "s01" 1319 "LEFT" 966 44 "Con3:Quan2:Item3" 44 35 26 TRUE FALSE FALSE "Expected" 7 -89.5 -1.61468776933158 "s01:t007" 0.25 0.5909091 0.5297187 0.7691558 0.54334858 "Vague" 0.5 "Comparison" -0.5 0.5 0.5 44 1.15245077016348 1.07163218154306e-06 0.0010351966873706 0.0321744726043893 6.87316383421252 31.0805405358401 966 933156 971 1.06062421977831e-06 0.00102986611740474 0.032091527190284 0.748669495395581 6.87832646829133 31.1608729017658 971 942841
"8" "36:45:54" 2 "RtoL" "Small" 54 45 36 "'Choose a square with 36 dots'" "s01" 726 "MIDDLE" 1656 45 "Con2:Quan1:Item4" 36 45 54 FALSE TRUE FALSE "Near" 8 -88.5 -1.59664656520497 "s01:t008" 0.75 0.6666667 0.946145 0.8166667 0.89861574 "Crisp" -0.5 "Matching" 0.5 0.5 -0.5 30 -1.4161957225392 3.64652617330626e-07 0.000603864734299517 0.0245736593591495 7.4121603349452 40.6939798987516 1656 2742336 966 1.07163218154306e-06 0.0010351966873706 0.0321744726043893 0.75887259475934 6.87316383421252 31.0805405358401 966 933156
"9" "06:15:24" 3 "LtoR" "Large" 6 15 24 "'Choose a square with far more than 10 dots'" "s01" 723 "RIGHT" 1017 24 "Con3:Quan2:Item1" 24 15 6 TRUE FALSE FALSE "Expected" 9 -87.5 -1.57860536107836 "s01:t009" -0.75 0.25 -1.3441995 0.5125 -1.37582241 "Vague" 0.5 "Comparison" -0.5 -0.5 0.5 44 1.15245077016348 9.668477572516e-07 0.000983284169124877 0.0313573622794532 6.92461239604856 31.8904374382039 1017 1034289 1656 3.64652617330626e-07 0.000603864734299517 0.0245736593591495 -0.176101974034374 7.4121603349452 40.6939798987516 1656 2742336
"10" "16:25:34" 3 "RtoL" "Small" 34 25 16 "'Choose a square with far fewer than 30 dots'" "s01" 907 "RIGHT" 1033 16 "Con3:Quan1:Item2" 16 25 34 TRUE FALSE FALSE "Expected" 10 -86.5 -1.56056415695175 "s01:t010" -0.25 0.4705882 -0.1316642 0.6876471 -0.06614191 "Vague" 0.5 "Comparison" -0.5 0.5 -0.5 45 1.33592551964224 9.3712895550418e-07 0.000968054211035818 0.0311135695643528 6.94022246911964 32.1403173599764 1033 1067089 1017 9.668477572516e-07 0.000983284169124877 0.0313573622794532 0.658360011557473 6.92461239604856 31.8904374382039 1017 1034289
"11" "26:35:44" 2 "LtoR" "Small" 26 35 44 "'Choose a square with 26 dots'" "s01" 731 "RIGHT" 2329 44 "Con2:Quan1:Item3" 26 35 44 FALSE FALSE TRUE "Far" 11 -85.5 -1.54252295282514 "s01:t011" 0.25 0.5909091 0.5297187 0.7691558 0.54334858 "Crisp" -0.5 "Matching" 0.5 -0.5 -0.5 30 -1.4161957225392 1.84357590306183e-07 0.0004293688278231 0.0207212168518912 7.75319426988434 48.2597140480546 2329 5424241 1033 9.3712895550418e-07 0.000968054211035818 0.0311135695643528 0.628371116774553 6.94022246911964 32.1403173599764 1033 1067089
"12" "36:45:54" 4 "LtoR" "Large" 36 45 54 "'Choose a square with more than 40 dots'" "s01" 781 "RIGHT" 990 54 "Con4:Quan2:Item4" 54 45 36 TRUE FALSE FALSE "Expected" 12 -84.5 -1.52448174869854 "s01:t012" 0.75 0.6666667 0.946145 0.8166667 0.89861574 "Crisp" -0.5 "Comparison" -0.5 -0.5 0.5 40 0.418551772248428 1.02030405060708e-06 0.00101010101010101 0.0317820863081864 6.89770494312864 31.4642654451045 990 980100 2329 1.84357590306183e-07 0.0004293688278231 0.0207212168518912 -0.649990182547091 7.75319426988434 48.2597140480546 2329 5424241
"13" "06:15:24" 4 "LtoR" "Small" 6 15 24 "'Choose a square with fewer than 20 dots'" "s01" 907 "LEFT" 945 6 "Con4:Quan1:Item1" 6 15 24 TRUE FALSE FALSE "Expected" 13 -83.5 -1.50644054457193 "s01:t013" -0.75 0.25 -1.3441995 0.5125 -1.37582241 "Crisp" -0.5 "Comparison" -0.5 -0.5 -0.5 41 0.602026521727191 1.11978947957784e-06 0.00105820105820106 0.0325300024316178 6.85118492749374 30.7408522978788 945 893025 990 1.02030405060708e-06 0.00101010101010101 0.0317820863081864 0.710605232273798 6.89770494312864 31.4642654451045 990 980100
"14" "16:25:34" 4 "RtoL" "Large" 34 25 16 "'Choose a square with more than 20 dots'" "s01" 863 "LEFT" 1022 34 "Con4:Quan2:Item2" 34 25 16 TRUE FALSE FALSE "Expected" 14 -82.5 -1.48839934044532 "s01:t014" -0.25 0.4705882 -0.1316642 0.6876471 -0.06614191 "Crisp" -0.5 "Comparison" -0.5 0.5 0.5 40 0.418551772248428 9.57410549132395e-07 0.000978473581213307 0.0312805623544927 6.92951677076365 31.9687347262916 1022 1044484 945 1.11978947957784e-06 0.00105820105820106 0.0325300024316178 0.802606250117125 6.85118492749374 30.7408522978788 945 893025
"15" "26:35:44" 1 "RtoL" "Small" 44 35 26 "'Choose a square with about 30 dots'" "s01" 943 "LEFT" 1709 44 "Con1:Quan1:Item3" 26 35 44 FALSE FALSE TRUE "Far" 15 -81.5 -1.47035813631871 "s01:t015" 0.25 0.5909091 0.5297187 0.7691558 0.54334858 "Vague" 0.5 "Matching" 0.5 0.5 -0.5 36 -0.315347225666624 3.42385902465897e-07 0.000585137507314219 0.024189615691743 7.44366368311559 41.3400532171888 1709 2920681 1022 9.57410549132395e-07 0.000978473581213307 0.0312805623544927 0.648912867626089 6.92951677076365 31.9687347262916 1022 1044484
"16" "36:45:54" 2 "LtoR" "Small" 36 45 54 "'Choose a square with 36 dots'" "s01" 590 "RIGHT" 1151 54 "Con2:Quan1:Item4" 36 45 54 FALSE FALSE TRUE "Far" 16 -80.5 -1.4523169321921 "s01:t016" 0.75 0.6666667 0.946145 0.8166667 0.89861574 "Crisp" -0.5 "Matching" 0.5 -0.5 -0.5 30 -1.4161957225392 7.54830348105112e-07 0.000868809730668983 0.0294755785468069 7.04838640872188 33.9263909073747 1151 1324801 1709 3.42385902465897e-07 0.000585137507314219 0.024189615691743 -0.223343111363496 7.44366368311559 41.3400532171888 1709 2920681
"17" "06:15:24" 1 "RtoL" "Small" 24 15 6 "'Choose a square with about 10 dots'" "s01" 622 "RIGHT" 3558 6 "Con1:Quan1:Item1" 6 15 24 TRUE FALSE FALSE "Expected" 17 -79.5 -1.43427572806549 "s01:t017" -0.75 0.25 -1.3441995 0.5125 -1.37582241 "Vague" 0.5 "Matching" 0.5 0.5 -0.5 36 -0.315347225666624 7.89929099123779e-08 0.000281056773468241 0.0167647479392993 8.17695386822578 59.648973168027 3558 12659364 1151 7.54830348105112e-07 0.000868809730668983 0.0294755785468069 0.426882158171731 7.04838640872188 33.9263909073747 1151 1324801
"18" "16:25:34" 3 "LtoR" "Small" 16 25 34 "'Choose a square with far fewer than 30 dots'" "s01" 557 "LEFT" 927 16 "Con3:Quan1:Item2" 16 25 34 TRUE FALSE FALSE "Expected" 18 -78.5 -1.41623452393888 "s01:t018" -0.25 0.4705882 -0.1316642 0.6876471 -0.06614191 "Vague" 0.5 "Comparison" -0.5 -0.5 -0.5 45 1.33592551964224 1.16369865325155e-06 0.00107874865156419 0.0328443092721431 6.83195356556585 30.4466746952767 927 859329 3558 7.89929099123779e-08 0.000281056773468241 0.0167647479392993 -1.13667465908163 8.17695386822578 59.648973168027 3558 12659364
"19" "26:35:44" 4 "RtoL" "Large" 44 35 26 "'Choose a square with more than 30 dots'" "s01" 725 "LEFT" 914 44 "Con4:Quan2:Item3" 44 35 26 TRUE FALSE FALSE "Expected" 19 -77.5 -1.39819331981227 "s01:t019" 0.25 0.5909091 0.5297187 0.7691558 0.54334858 "Crisp" -0.5 "Comparison" -0.5 0.5 0.5 40 0.418551772248428 1.19703709378546e-06 0.00109409190371991 0.0330770600827811 6.81783057145415 30.2324329156619 914 835396 927 1.16369865325155e-06 0.00107874865156419 0.0328443092721431 0.841269073844985 6.83195356556585 30.4466746952767 927 859329
"20" "36:45:54" 3 "RtoL" "Large" 54 45 36 "'Choose a square with far more than 40 dots'" "s01" 634 "LEFT" 1090 54 "Con3:Quan2:Item4" 54 45 36 TRUE FALSE FALSE "Expected" 20 -76.5 -1.38015211568566 "s01:t020" 0.75 0.6666667 0.946145 0.8166667 0.89861574 "Vague" 0.5 "Comparison" -0.5 0.5 0.5 44 1.15245077016348 8.4167999326656e-07 0.000917431192660551 0.0302891266407691 6.99393297522319 33.0151480384384 1090 1188100 914 1.19703709378546e-06 0.00109409190371991 0.0330770600827811 0.869899706093311 6.81783057145415 30.2324329156619 914 835396
"21" "06:15:24" 2 "LtoR" "Large" 6 15 24 "'Choose a square with 24 dots'" "s01" 657 "RIGHT" 1177 24 "Con2:Quan2:Item1" 24 15 6 TRUE FALSE FALSE "Expected" 21 -75.5 -1.36211091155905 "s01:t021" -0.75 0.25 -1.3441995 0.5125 -1.37582241 "Crisp" -0.5 "Matching" 0.5 -0.5 0.5 30 -1.4161957225392 7.21850188655547e-07 0.000849617672047579 0.0291482018664544 7.07072410726028 34.3074335968169 1177 1385329 1090 8.4167999326656e-07 0.000917431192660551 0.0302891266407691 0.526956552029737 6.99393297522319 33.0151480384384 1090 1188100
"22" "16:25:34" 4 "LtoR" "Small" 16 25 34 "'Choose a square with fewer than 30 dots'" "s01" 592 "LEFT" 865 16 "Con4:Quan1:Item2" 16 25 34 TRUE FALSE FALSE "Expected" 22 -74.5 -1.34406970743244 "s01:t022" -0.25 0.4705882 -0.1316642 0.6876471 -0.06614191 "Crisp" -0.5 "Comparison" -0.5 -0.5 -0.5 41 0.602026521727191 1.33649637475358e-06 0.00115606936416185 0.0340010200459023 6.76272950693188 29.4108823397055 865 748225 1177 7.21850188655547e-07 0.000849617672047579 0.0291482018664544 0.386611615971874 7.07072410726028 34.3074335968169 1177 1385329
"23" "26:35:44" 3 "LtoR" "Large" 26 35 44 "'Choose a square with far more than 30 dots'" "s01" 962 "RIGHT" 894 44 "Con3:Quan2:Item3" 44 35 26 TRUE FALSE FALSE "Expected" 23 -73.5 -1.32602850330583 "s01:t023" 0.25 0.5909091 0.5297187 0.7691558 0.54334858 "Vague" 0.5 "Comparison" -0.5 -0.5 0.5 44 1.15245077016348 1.25119489112102e-06 0.00111856823266219 0.0334450031045326 6.79570577517351 29.8998327754521 894 799236 865 1.33649637475358e-06 0.00115606936416185 0.0340010200459023 0.983555842644607 6.76272950693188 29.4108823397055 865 748225
"24" "36:45:54" 4 "RtoL" "Small" 54 45 36 "'Choose a square with fewer than 50 dots'" "s01" 1373 "RIGHT" 1041 36 "Con4:Quan1:Item4" 36 45 54 TRUE FALSE FALSE "Expected" 24 -72.5 -1.30798729917922 "s01:t024" 0.75 0.6666667 0.946145 0.8166667 0.89861574 "Crisp" -0.5 "Comparison" -0.5 0.5 -0.5 41 0.602026521727191 9.22780781429221e-07 0.000960614793467819 0.0309937863686872 6.94793706861497 32.2645316098034 1041 1083681 894 1.25119489112102e-06 0.00111856823266219 0.0334450031045326 0.915160306111099 6.79570577517351 29.8998327754521 894 799236
"25" "06:15:24" 3 "RtoL" "Large" 24 15 6 "'Choose a square with far more than 10 dots'" "s01" 732 "LEFT" 856 24 "Con3:Quan2:Item1" 24 15 6 TRUE FALSE FALSE "Expected" 25 -71.5 -1.28994609505261 "s01:t025" -0.75 0.25 -1.3441995 0.5125 -1.37582241 "Vague" 0.5 "Comparison" -0.5 0.5 0.5 44 1.15245077016348 1.36474801292689e-06 0.00116822429906542 0.0341792963512332 6.75227037614174 29.2574776766556 856 732736 1041 9.22780781429221e-07 0.000960614793467819 0.0309937863686872 0.613636609018256 6.94793706861497 32.2645316098034 1041 1083681
"26" "16:25:34" 1 "RtoL" "Large" 34 25 16 "'Choose a square with about 30 dots'" "s01" 786 "LEFT" 972 34 "Con1:Quan2:Item2" 34 25 16 TRUE FALSE FALSE "Expected" 26 -70.5 -1.271904890926 "s01:t026" -0.25 0.4705882 -0.1316642 0.6876471 -0.06614191 "Vague" 0.5 "Matching" 0.5 0.5 0.5 36 -0.315347225666624 1.05844298802689e-06 0.00102880658436214 0.0320750149549792 6.87935580446044 31.1769145362398 972 944784 856 1.36474801292689e-06 0.00116822429906542 0.0341792963512332 1.00548557651976 6.75227037614174 29.2574776766556 856 732736
"27" "26:35:44" 4 "LtoR" "Large" 26 35 44 "'Choose a square with more than 30 dots'" "s01" 729 "RIGHT" 908 44 "Con4:Quan2:Item3" 44 35 26 TRUE FALSE FALSE "Expected" 27 -69.5 -1.25386368679939 "s01:t027" 0.25 0.5909091 0.5297187 0.7691558 0.54334858 "Crisp" -0.5 "Comparison" -0.5 -0.5 0.5 40 0.418551772248428 1.21290923557608e-06 0.00110132158590308 0.0331861655799986 6.81124437860129 30.1330383466387 908 824464 972 1.05844298802689e-06 0.00102880658436214 0.0320750149549792 0.746638328520959 6.87935580446044 31.1769145362398 972 944784
"28" "36:45:54" 2 "RtoL" "Large" 54 45 36 "'Choose a square with 54 dots'" "s01" 811 "LEFT" 1117 54 "Con2:Quan2:Item4" 54 45 36 TRUE FALSE FALSE "Expected" 28 -68.5 -1.23582248267278 "s01:t028" 0.75 0.6666667 0.946145 0.8166667 0.89861574 "Crisp" -0.5 "Matching" 0.5 0.5 0.5 30 -1.4161957225392 8.01481779513965e-07 0.000895255147717099 0.0299208146232201 7.0184017990692 33.4215499341368 1117 1247689 908 1.21290923557608e-06 0.00110132158590308 0.0331861655799986 0.883320752226476 6.81124437860129 30.1330383466387 908 824464
"29" "06:15:24" 4 "RtoL" "Small" 24 15 6 "'Choose a square with fewer than 20 dots'" "s01" 700 "RIGHT" 794 6 "Con4:Quan1:Item1" 6 15 24 TRUE FALSE FALSE "Expected" 29 -67.5 -1.21778127854617 "s01:t029" -0.75 0.25 -1.3441995 0.5125 -1.37582241 "Crisp" -0.5 "Comparison" -0.5 0.5 -0.5 41 0.602026521727191 1.58620383353742e-06 0.00125944584382872 0.0354886720493838 6.67708346124714 28.1780056072107 794 630436 1117 8.01481779513965e-07 0.000895255147717099 0.0299208146232201 0.481650561910173 7.0184017990692 33.4215499341368 1117 1247689
"30" "16:25:34" 2 "RtoL" "Large" 34 25 16 "'Choose a square with 34 dots'" "s01" 742 "LEFT" 882 34 "Con2:Quan2:Item2" 34 25 16 TRUE FALSE FALSE "Expected" 30 -66.5 -1.19974007441956 "s01:t030" -0.25 0.4705882 -0.1316642 0.6876471 -0.06614191 "Crisp" -0.5 "Matching" 0.5 0.5 0.5 30 -1.4161957225392 1.28547261686232e-06 0.00113378684807256 0.0336717514850737 6.78219205600679 29.698484809835 882 777924 794 1.58620383353742e-06 0.00125944584382872 0.0354886720493838 1.16655162817339 6.67708346124714 28.1780056072107 794 630436
"31" "26:35:44" 2 "RtoL" "Small" 44 35 26 "'Choose a square with 26 dots'" "s01" 634 "LEFT" 1172 44 "Con2:Quan1:Item3" 26 35 44 FALSE FALSE TRUE "Far" 31 -65.5 -1.18169887029295 "s01:t031" 0.25 0.5909091 0.5297187 0.7691558 0.54334858 "Crisp" -0.5 "Matching" 0.5 0.5 -0.5 30 -1.4161957225392 7.28022458036785e-07 0.000853242320819113 0.0292103118918493 7.06646697013696 34.2344855372474 1172 1373584 882 1.28547261686232e-06 0.00113378684807256 0.0336717514850737 0.943052580592899 6.78219205600679 29.698484809835 882 777924
"32" "36:45:54" 1 "LtoR" "Large" 36 45 54 "'Choose a square with about 50 dots'" "s01" 615 "RIGHT" 817 54 "Con1:Quan2:Item4" 54 45 36 TRUE FALSE FALSE "Expected" 32 -64.5 -1.16365766616634 "s01:t032" 0.75 0.6666667 0.946145 0.8166667 0.89861574 "Vague" 0.5 "Matching" 0.5 -0.5 0.5 36 -0.315347225666624 1.49815202947165e-06 0.00122399020807834 0.034985571427066 6.70563909486 28.5832118559129 817 667489 1172 7.28022458036785e-07 0.000853242320819113 0.0292103118918493 0.394251758195824 7.06646697013696 34.2344855372474 1172 1373584
"33" "06:15:24" 1 "RtoL" "Large" 24 15 6 "'Choose a square with about 20 dots'" "s01" 698 "LEFT" 760 24 "Con1:Quan2:Item1" 24 15 6 TRUE FALSE FALSE "Expected" 33 -63.5 -1.14561646203973 "s01:t033" -0.75 0.25 -1.3441995 0.5125 -1.37582241 "Vague" 0.5 "Matching" 0.5 0.5 0.5 36 -0.315347225666624 1.73130193905817e-06 0.00131578947368421 0.0362738125055006 6.63331843328038 27.5680975041804 760 577600 817 1.49815202947165e-06 0.00122399020807834 0.034985571427066 1.10466531782284 6.70563909486 28.5832118559129 817 667489
"34" "16:25:34" 2 "RtoL" "Small" 34 25 16 "'Choose a square with 16 dots'" "s01" 692 "RIGHT" 1103 16 "Con2:Quan1:Item2" 16 25 34 TRUE FALSE FALSE "Expected" 34 -62.5 -1.12757525791312 "s01:t034" -0.25 0.4705882 -0.1316642 0.6876471 -0.06614191 "Crisp" -0.5 "Matching" 0.5 0.5 -0.5 30 -1.4161957225392 8.21956766717984e-07 0.000906618313689937 0.0301101031829839 7.0057890192535 33.2114438108312 1103 1216609 760 1.73130193905817e-06 0.00131578947368421 0.0362738125055006 1.26313160398848 6.63331843328038 27.5680975041804 760 577600
"35" "26:35:44" 1 "LtoR" "Large" 26 35 44 "'Choose a square with about 40 dots'" "s01" 674 "RIGHT" 1041 44 "Con1:Quan2:Item3" 44 35 26 TRUE FALSE FALSE "Expected" 35 -61.5 -1.10953405378651 "s01:t035" 0.25 0.5909091 0.5297187 0.7691558 0.54334858 "Vague" 0.5 "Matching" 0.5 -0.5 0.5 36 -0.315347225666624 9.22780781429221e-07 0.000960614793467819 0.0309937863686872 6.94793706861497 32.2645316098034 1041 1083681 1103 8.21956766717984e-07 0.000906618313689937 0.0301101031829839 0.504934911075521 7.0057890192535 33.2114438108312 1103 1216609
"36" "36:45:54" 3 "RtoL" "Small" 54 45 36 "'Choose a square with far fewer than 50 dots'" "s01" 771 "RIGHT" 1510 36 "Con3:Quan1:Item4" 36 45 54 TRUE FALSE FALSE "Expected" 36 -60.5 -1.0914928496599 "s01:t036" 0.75 0.6666667 0.946145 0.8166667 0.89861574 "Vague" 0.5 "Comparison" -0.5 0.5 -0.5 45 1.33592551964224 4.38577255383536e-07 0.000662251655629139 0.0257342506327489 7.31986492980897 38.8587184554509 1510 2280100 1041 9.22780781429221e-07 0.000960614793467819 0.0309937863686872 0.613636609018256 6.94793706861497 32.2645316098034 1041 1083681
"37" "06:15:24" 3 "LtoR" "Small" 6 15 24 "'Choose a square with far fewer than 20 dots'" "s01" 718 "LEFT" 612 6 "Con3:Quan1:Item1" 6 15 24 TRUE FALSE FALSE "Expected" 37 -59.5 -1.07345164553329 "s01:t037" -0.75 0.25 -1.3441995 0.5125 -1.37582241 "Vague" 0.5 "Comparison" -0.5 -0.5 -0.5 45 1.33592551964224 2.66991328121663e-06 0.00163398692810458 0.0404226041727222 6.41673228251233 24.738633753706 612 374544 1510 4.38577255383536e-07 0.000662251655629139 0.0257342506327489 -0.0333378656991324 7.31986492980897 38.8587184554509 1510 2280100
"38" "16:25:34" 2 "LtoR" "Small" 16 25 34 "'Choose a square with 16 dots'" "s01" 671 "LEFT" 734 16 "Con2:Quan1:Item2" 16 25 34 TRUE FALSE FALSE "Expected" 38 -58.5 -1.05541044140668 "s01:t038" -0.25 0.4705882 -0.1316642 0.6876471 -0.06614191 "Crisp" -0.5 "Matching" 0.5 -0.5 -0.5 30 -1.4161957225392 1.85612782038622e-06 0.00136239782016349 0.0369106735262781 6.59850902861452 27.0924343682881 734 538756 612 2.66991328121663e-06 0.00163398692810458 0.0404226041727222 1.7734736654126 6.41673228251233 24.738633753706 612 374544
"39" "26:35:44" 4 "RtoL" "Small" 44 35 26 "'Choose a square with fewer than 40 dots'" "s01" 954 "RIGHT" 1030 26 "Con4:Quan1:Item3" 26 35 44 TRUE FALSE FALSE "Expected" 39 -57.5 -1.03736923728007 "s01:t039" 0.25 0.5909091 0.5297187 0.7691558 0.54334858 "Crisp" -0.5 "Comparison" -0.5 0.5 -0.5 41 0.602026521727191 9.42595909133754e-07 0.000970873786407767 0.0311588476424878 6.93731408122368 32.0936130717624 1030 1060900 734 1.85612782038622e-06 0.00136239782016349 0.0369106735262781 1.34147175511059 6.59850902861452 27.0924343682881 734 538756
"40" "36:45:54" 2 "LtoR" "Large" 36 45 54 "'Choose a square with 54 dots'" "s01" 577 "RIGHT" 747 54 "Con2:Quan2:Item4" 54 45 36 TRUE FALSE FALSE "Expected" 40 -56.5 -1.01932803315346 "s01:t040" 0.75 0.6666667 0.946145 0.8166667 0.89861574 "Crisp" -0.5 "Matching" 0.5 -0.5 0.5 30 -1.4161957225392 1.79208579073097e-06 0.00133868808567604 0.0365880866632301 6.61606518513282 27.3313007374329 747 558009 1030 9.42595909133754e-07 0.000970873786407767 0.0311588476424878 0.633940764418063 6.93731408122368 32.0936130717624 1030 1060900
"41" "06:15:24" 2 "RtoL" "Small" 24 15 6 "'Choose a square with 6 dots'" "s01" 681 "RIGHT" 1262 6 "Con2:Quan1:Item1" 6 15 24 TRUE FALSE FALSE "Expected" 41 -55.5 -1.00128682902685 "s01:t041" -0.75 0.25 -1.3441995 0.5125 -1.37582241 "Crisp" -0.5 "Matching" 0.5 0.5 -0.5 29 -1.59967047201796 6.27886709145295e-07 0.000792393026941363 0.0281494764949788 7.14045304310116 35.5246393366632 1262 1592644 747 1.79208579073097e-06 0.00133868808567604 0.0365880866632301 1.30179040741194 6.61606518513282 27.3313007374329 747 558009
"42" "16:25:34" 3 "RtoL" "Large" 34 25 16 "'Choose a square with far more than 20 dots'" "s01" 784 "LEFT" 779 34 "Con3:Quan2:Item2" 34 25 16 TRUE FALSE FALSE "Expected" 42 -54.5 -0.983245624900239 "s01:t042" -0.25 0.4705882 -0.1316642 0.6876471 -0.06614191 "Vague" 0.5 "Comparison" -0.5 0.5 0.5 44 1.15245077016348 1.64787810975198e-06 0.00128369704749679 0.0358287181950009 6.65801104587075 27.9105714739057 779 606841 1262 6.27886709145295e-07 0.000792393026941363 0.0281494764949788 0.263758600983826 7.14045304310116 35.5246393366632 1262 1592644
"43" "26:35:44" 1 "RtoL" "Large" 44 35 26 "'Choose a square with about 40 dots'" "s01" 615 "LEFT" 712 44 "Con1:Quan2:Item3" 44 35 26 TRUE FALSE FALSE "Expected" 43 -53.5 -0.965204420773629 "s01:t043" 0.25 0.5909091 0.5297187 0.7691558 0.54334858 "Vague" 0.5 "Matching" 0.5 0.5 0.5 36 -0.315347225666624 1.97260446913269e-06 0.00140449438202247 0.0374765844497931 6.56807791141198 26.6833281282527 712 506944 779 1.64787810975198e-06 0.00128369704749679 0.0358287181950009 1.20838063884767 6.65801104587075 27.9105714739057 779 606841
"44" "36:45:54" 1 "RtoL" "Large" 54 45 36 "'Choose a square with about 50 dots'" "s01" 559 "LEFT" 930 54 "Con1:Quan2:Item4" 54 45 36 TRUE FALSE FALSE "Expected" 44 -52.5 -0.947163216647019 "s01:t044" 0.75 0.6666667 0.946145 0.8166667 0.89861574 "Vague" 0.5 "Matching" 0.5 0.5 0.5 36 -0.315347225666624 1.15620302925194e-06 0.0010752688172043 0.0327912917891976 6.8351845861473 30.4959013639538 930 864900 712 1.97260446913269e-06 0.00140449438202247 0.0374765844497931 1.41108434847623 6.56807791141198 26.6833281282527 712 506944
"45" "06:15:24" 4 "LtoR" "Large" 6 15 24 "'Choose a square with more than 10 dots'" "s01" 862 "RIGHT" 1111 24 "Con4:Quan2:Item1" 24 15 6 TRUE FALSE FALSE "Expected" 45 -51.5 -0.929122012520409 "s01:t045" -0.75 0.25 -1.3441995 0.5125 -1.37582241 "Crisp" -0.5 "Comparison" -0.5 -0.5 0.5 40 0.418551772248428 8.1016202430324e-07 0.0009000900090009 0.0300015001125094 7.01301578963963 33.3316666249979 1111 1234321 930 1.15620302925194e-06 0.0010752688172043 0.0327912917891976 0.834747403511024 6.8351845861473 30.4959013639538 930 864900
"46" "16:25:34" 3 "LtoR" "Large" 16 25 34 "'Choose a square with far more than 20 dots'" "s01" 1166 "RIGHT" 643 34 "Con3:Quan2:Item2" 34 25 16 TRUE FALSE FALSE "Expected" 46 -50.5 -0.911080808393799 "s01:t046" -0.25 0.4705882 -0.1316642 0.6876471 -0.06614191 "Vague" 0.5 "Comparison" -0.5 -0.5 0.5 44 1.15245077016348 2.41867799897932e-06 0.0015552099533437 0.039436150336255 6.46614472423762 25.3574446662119 643 413449 1111 8.1016202430324e-07 0.0009000900090009 0.0300015001125094 0.491575668358938 7.01301578963963 33.3316666249979 1111 1234321
"47" "26:35:44" 4 "LtoR" "Small" 26 35 44 "'Choose a square with fewer than 40 dots'" "s01" 707 "LEFT" 665 26 "Con4:Quan1:Item3" 26 35 44 TRUE FALSE FALSE "Expected" 47 -49.5 -0.893039604267189 "s01:t047" 0.25 0.5909091 0.5297187 0.7691558 0.54334858 "Crisp" -0.5 "Comparison" -0.5 -0.5 -0.5 41 0.602026521727191 2.26129232856578e-06 0.00150375939849624 0.0387783367164741 6.49978704065585 25.7875939164553 665 442225 643 2.41867799897932e-06 0.0015552099533437 0.039436150336255 1.65213016957504 6.46614472423762 25.3574446662119 643 413449
"48" "36:45:54" 3 "LtoR" "Small" 36 45 54 "'Choose a square with far fewer than 50 dots'" "s01" 832 "LEFT" 737 36 "Con3:Quan1:Item4" 36 45 54 TRUE FALSE FALSE "Expected" 48 -48.5 -0.874998400140579 "s01:t048" 0.75 0.6666667 0.946145 0.8166667 0.89861574 "Vague" 0.5 "Comparison" -0.5 -0.5 -0.5 45 1.33592551964224 1.84104762974323e-06 0.00135685210312076 0.0368354734341879 6.60258789218934 27.1477439209965 737 543169 665 2.26129232856578e-06 0.00150375939849624 0.0387783367164741 1.57121264329764 6.49978704065585 25.7875939164553 665 442225
"49" "06:15:24" 1 "LtoR" "Small" 6 15 24 "'Choose a square with about 10 dots'" "s01" 623 "LEFT" 695 6 "Con1:Quan1:Item1" 6 15 24 TRUE FALSE FALSE "Expected" 49 -47.5 -0.856957196013969 "s01:t049" -0.75 0.25 -1.3441995 0.5125 -1.37582241 "Vague" 0.5 "Matching" 0.5 -0.5 -0.5 36 -0.315347225666624 2.07028621706951e-06 0.00143884892086331 0.0379321620905441 6.54391184556479 26.3628526529281 695 483025 737 1.84104762974323e-06 0.00135685210312076 0.0368354734341879 1.33222140631148 6.60258789218934 27.1477439209965 737 543169
"50" "16:25:34" 4 "RtoL" "Small" 34 25 16 "'Choose a square with fewer than 30 dots'" "s01" 830 "RIGHT" 814 16 "Con4:Quan1:Item2" 16 25 34 TRUE FALSE FALSE "Expected" 50 -46.5 -0.83891599188736 "s01:t050" -0.25 0.4705882 -0.1316642 0.6876471 -0.06614191 "Crisp" -0.5 "Comparison" -0.5 0.5 -0.5 41 0.602026521727191 1.50921526842903e-06 0.00122850122850123 0.0350499818616391 6.70196036600254 28.5306852353742 814 662596 695 2.07028621706951e-06 0.00143884892086331 0.0379321620905441 1.46712486604584 6.54391184556479 26.3628526529281 695 483025
"51" "26:35:44" 1 "LtoR" "Small" 26 35 44 "'Choose a square with about 30 dots'" "s01" 578 "RIGHT" 1395 44 "Con1:Quan1:Item3" 26 35 44 FALSE FALSE TRUE "Far" 51 -45.5 -0.82087478776075 "s01:t051" 0.25 0.5909091 0.5297187 0.7691558 0.54334858 "Vague" 0.5 "Matching" 0.5 -0.5 -0.5 36 -0.315347225666624 5.13868013000861e-07 0.000716845878136201 0.0267739776300833 7.24064969425547 37.3496987939662 1395 1946025 814 1.50921526842903e-06 0.00122850122850123 0.0350499818616391 1.11258843293536 6.70196036600254 28.5306852353742 814 662596
"52" "36:45:54" 1 "RtoL" "Small" 54 45 36 "'Choose a square with about 40 dots'" "s01" 585 "LEFT" 683 54 "Con1:Quan1:Item4" 36 45 54 FALSE FALSE TRUE "Far" 52 -44.5 -0.80283358363414 "s01:t052" 0.75 0.6666667 0.946145 0.8166667 0.89861574 "Vague" 0.5 "Matching" 0.5 0.5 -0.5 36 -0.315347225666624 2.1436732698949e-06 0.00146412884333821 0.038263936589669 6.52649485957079 26.134268690744 683 466489 1395 5.13868013000861e-07 0.000716845878136201 0.0267739776300833 0.0945587513641387 7.24064969425547 37.3496987939662 1395 1946025
"53" "06:15:24" 2 "LtoR" "Small" 6 15 24 "'Choose a square with 6 dots'" "s01" 538 "LEFT" 710 6 "Con2:Quan1:Item1" 6 15 24 TRUE FALSE FALSE "Expected" 53 -43.5 -0.78479237950753 "s01:t053" -0.75 0.25 -1.3441995 0.5125 -1.37582241 "Crisp" -0.5 "Matching" 0.5 -0.5 -0.5 29 -1.59967047201796 1.98373338623289e-06 0.00140845070422535 0.0375293312520401 6.56526497003536 26.6458251889485 710 504100 683 2.1436732698949e-06 0.00146412884333821 0.038263936589669 1.50793638308323 6.52649485957079 26.134268690744 683 466489
"54" "16:25:34" 1 "RtoL" "Small" 34 25 16 "'Choose a square with about 20 dots'" "s01" 691 "MIDDLE" 1994 25 "Con1:Quan1:Item2" 16 25 34 FALSE TRUE FALSE "Near" 54 -42.5 -0.76675117538092 "s01:t054" -0.25 0.4705882 -0.1316642 0.6876471 -0.06614191 "Vague" 0.5 "Matching" 0.5 0.5 -0.5 36 -0.315347225666624 2.51506777101616e-07 0.000501504513540622 0.0223942964511195 7.59789795052178 44.6542271235322 1994 3976036 710 1.98373338623289e-06 0.00140845070422535 0.0375293312520401 1.41757272242977 6.56526497003536 26.6458251889485 710 504100
"55" "26:35:44" 3 "RtoL" "Small" 44 35 26 "'Choose a square with far fewer than 40 dots'" "s01" 681 "RIGHT" 887 26 "Con3:Quan1:Item3" 26 35 44 TRUE FALSE FALSE "Expected" 55 -41.5 -0.74870997125431 "s01:t055" 0.25 0.5909091 0.5297187 0.7691558 0.54334858 "Vague" 0.5 "Comparison" -0.5 0.5 -0.5 45 1.33592551964224 1.27102110022128e-06 0.00112739571589628 0.0335767138936537 6.78784498230958 29.7825452236709 887 786769 1994 2.51506777101616e-07 0.000501504513540622 0.0223942964511195 -0.44418498429075 7.59789795052178 44.6542271235322 1994 3976036
"56" "36:45:54" 4 "LtoR" "Small" 36 45 54 "'Choose a square with fewer than 50 dots'" "s01" 624 "LEFT" 1080 36 "Con4:Quan1:Item4" 36 45 54 TRUE FALSE FALSE "Expected" 56 -40.5 -0.7306687671277 "s01:t056" 0.75 0.6666667 0.946145 0.8166667 0.89861574 "Crisp" -0.5 "Comparison" -0.5 -0.5 -0.5 41 0.602026521727191 8.57338820301783e-07 0.000925925925925926 0.0304290309725092 6.98471632011827 32.86335345031 1080 1166400 887 1.27102110022128e-06 0.00112739571589628 0.0335767138936537 0.931362024833918 6.78784498230958 29.7825452236709 887 786769
"57" "06:15:24" 1 "LtoR" "Large" 6 15 24 "'Choose a square with about 20 dots'" "s01" 560 "RIGHT" 1309 24 "Con1:Quan2:Item1" 24 15 6 TRUE FALSE FALSE "Expected" 57 -39.5 -0.71262756300109 "s01:t057" -0.75 0.25 -1.3441995 0.5125 -1.37582241 "Vague" 0.5 "Matching" 0.5 -0.5 0.5 36 -0.315347225666624 5.83607288321259e-07 0.000763941940412529 0.0276394996411391 7.1770187659099 36.1801050302511 1309 1713481 1080 8.57338820301783e-07 0.000925925925925926 0.0304290309725092 0.544166156847088 6.98471632011827 32.86335345031 1080 1166400
"58" "16:25:34" 1 "LtoR" "Small" 16 25 34 "'Choose a square with about 20 dots'" "s01" 587 "MIDDLE" 1454 25 "Con1:Quan1:Item2" 16 25 34 FALSE TRUE FALSE "Near" 58 -38.5 -0.694586358874481 "s01:t058" -0.25 0.4705882 -0.1316642 0.6876471 -0.06614191 "Vague" 0.5 "Matching" 0.5 -0.5 -0.5 36 -0.315347225666624 4.73010941689103e-07 0.000687757909215956 0.0262251388788688 7.28207365809346 38.1313519298752 1454 2114116 1309 5.83607288321259e-07 0.000763941940412529 0.0276394996411391 0.201026446722287 7.1770187659099 36.1801050302511 1309 1713481
"59" "26:35:44" 2 "LtoR" "Large" 26 35 44 "'Choose a square with 44 dots'" "s01" 553 "RIGHT" 1252 44 "Con2:Quan2:Item3" 44 35 26 TRUE FALSE FALSE "Expected" 59 -37.5 -0.676545154747871 "s01:t059" 0.25 0.5909091 0.5297187 0.7691558 0.54334858 "Crisp" -0.5 "Matching" 0.5 -0.5 0.5 30 -1.4161957225392 6.37956904735171e-07 0.000798722044728434 0.0282616709472111 7.13249755166004 35.3836120259083 1252 1567504 1454 4.73010941689103e-07 0.000687757909215956 0.0262251388788688 0.0270462026147765 7.28207365809346 38.1313519298752 1454 2114116
"60" "36:45:54" 1 "LtoR" "Small" 36 45 54 "'Choose a square with about 40 dots'" "s01" 687 "RIGHT" 837 54 "Con1:Quan1:Item4" 36 45 54 FALSE FALSE TRUE "Far" 60 -36.5 -0.658503950621261 "s01:t060" 0.75 0.6666667 0.946145 0.8166667 0.89861574 "Vague" 0.5 "Matching" 0.5 -0.5 -0.5 36 -0.315347225666624 1.42741114722461e-06 0.001194743130227 0.0345650564910142 6.72982407048948 28.9309522829789 837 700569 1252 6.37956904735171e-07 0.000798722044728434 0.0282616709472111 0.277559618876566 7.13249755166004 35.3836120259083 1252 1567504
"61" "06:15:24" 4 "RtoL" "Large" 24 15 6 "'Choose a square with more than 10 dots'" "s01" 798 "LEFT" 769 24 "Con4:Quan2:Item1" 24 15 6 TRUE FALSE FALSE "Expected" 61 -35.5 -0.640462746494651 "s01:t061" -0.75 0.25 -1.3441995 0.5125 -1.37582241 "Crisp" -0.5 "Comparison" -0.5 0.5 0.5 40 0.418551772248428 1.69101445648259e-06 0.00130039011703511 0.0360609222987309 6.64509096950564 27.7308492477241 769 591361 837 1.42741114722461e-06 0.001194743130227 0.0345650564910142 1.05293785678404 6.72982407048948 28.9309522829789 837 700569
"62" "16:25:34" 1 "LtoR" "Large" 16 25 34 "'Choose a square with about 30 dots'" "s01" 758 "RIGHT" 976 34 "Con1:Quan2:Item2" 34 25 16 TRUE FALSE FALSE "Expected" 62 -34.5 -0.622421542368041 "s01:t062" -0.25 0.4705882 -0.1316642 0.6876471 -0.06614191 "Vague" 0.5 "Matching" 0.5 -0.5 0.5 36 -0.315347225666624 1.04978500403117e-06 0.00102459016393443 0.032009219983224 6.88346258641309 31.2409987036266 976 952576 769 1.69101445648259e-06 0.00130039011703511 0.0360609222987309 1.23694402078487 6.64509096950564 27.7308492477241 769 591361
"63" "26:35:44" 2 "RtoL" "Large" 44 35 26 "'Choose a square with 44 dots'" "s01" 728 "LEFT" 706 44 "Con2:Quan2:Item3" 44 35 26 TRUE FALSE FALSE "Expected" 63 -33.5 -0.604380338241431 "s01:t063" 0.25 0.5909091 0.5297187 0.7691558 0.54334858 "Crisp" -0.5 "Matching" 0.5 0.5 0.5 30 -1.4161957225392 2.00627563017118e-06 0.00141643059490085 0.0376354964747491 6.55961523749324 26.5706605111728 706 498436 976 1.04978500403117e-06 0.00102459016393443 0.032009219983224 0.738544901757165 6.88346258641309 31.2409987036266 976 952576
"64" "36:45:54" 4 "RtoL" "Large" 54 45 36 "'Choose a square with more than 40 dots'" "s01" 560 "LEFT" 715 54 "Con4:Quan2:Item4" 54 45 36 TRUE FALSE FALSE "Expected" 64 -32.5 -0.586339134114821 "s01:t064" 0.75 0.6666667 0.946145 0.8166667 0.89861574 "Crisp" -0.5 "Comparison" -0.5 0.5 0.5 40 0.418551772248428 1.95608587216979e-06 0.0013986013986014 0.0373978796003383 6.57228254269401 26.7394839142419 715 511225 706 2.00627563017118e-06 0.00141643059490085 0.0376354964747491 1.43063208596372 6.55961523749324 26.5706605111728 706 498436
"65" "06:15:24" 3 "LtoR" "Small" 6 15 24 "'Choose a square with far fewer than 20 dots'" "s01" 1233 "LEFT" 676 6 "Con3:Quan1:Item1" 6 15 24 TRUE FALSE FALSE "Expected" 65 -31.5 -0.568297929988211 "s01:t065" -0.75 0.25 -1.3441995 0.5125 -1.37582241 "Vague" 0.5 "Comparison" -0.5 -0.5 -0.5 45 1.33592551964224 2.1882987290361e-06 0.0014792899408284 0.0384615384615385 6.51619307604296 26 676 456976 715 1.95608587216979e-06 0.0013986013986014 0.0373978796003383 1.40140288015084 6.57228254269401 26.7394839142419 715 511225
"66" "16:25:34" 1 "LtoR" "Large" 16 25 34 "'Choose a square with about 30 dots'" "s01" 763 "RIGHT" 855 34 "Con1:Quan2:Item2" 34 25 16 TRUE FALSE FALSE "Expected" 66 -30.5 -0.550256725861601 "s01:t066" -0.25 0.4705882 -0.1316642 0.6876471 -0.06614191 "Vague" 0.5 "Matching" 0.5 -0.5 0.5 36 -0.315347225666624 1.36794227283609e-06 0.00116959064327485 0.0341992784028385 6.75110146893676 29.2403830344269 855 731025 676 2.1882987290361e-06 0.0014792899408284 0.0384615384615385 1.53224335116453 6.51619307604296 26 676 456976
"67" "26:35:44" 3 "LtoR" "Small" 26 35 44 "'Choose a square with far fewer than 40 dots'" "s01" 632 "LEFT" 640 26 "Con3:Quan1:Item3" 26 35 44 TRUE FALSE FALSE "Expected" 67 -29.5 -0.532215521734992 "s01:t067" 0.25 0.5909091 0.5297187 0.7691558 0.54334858 "Vague" 0.5 "Comparison" -0.5 -0.5 -0.5 45 1.33592551964224 2.44140625e-06 0.0015625 0.0395284707521047 6.46146817635372 25.298221281347 640 409600 855 1.36794227283609e-06 0.00116959064327485 0.0341992784028385 1.00794356482713 6.75110146893676 29.2403830344269 855 731025
"68" "36:45:54" 2 "RtoL" "Large" 54 45 36 "'Choose a square with 54 dots'" "s01" 512 "LEFT" 693 54 "Con2:Quan2:Item4" 54 45 36 TRUE FALSE FALSE "Expected" 68 -28.5 -0.514174317608382 "s01:t068" 0.75 0.6666667 0.946145 0.8166667 0.89861574 "Crisp" -0.5 "Matching" 0.5 0.5 0.5 30 -1.4161957225392 2.08225316450425e-06 0.00144300144300144 0.0379868588198793 6.5410299991899 26.3248931621764 693 480249 640 2.44140625e-06 0.0015625 0.0395284707521047 1.6634864860921 6.46146817635372 25.298221281347 640 409600
"69" "06:15:24" 4 "LtoR" "Large" 6 15 24 "'Choose a square with more than 10 dots'" "s01" 443 "RIGHT" 770 24 "Con4:Quan2:Item1" 24 15 6 TRUE FALSE FALSE "Expected" 69 -27.5 -0.496133113481772 "s01:t069" -0.75 0.25 -1.3441995 0.5125 -1.37582241 "Crisp" -0.5 "Comparison" -0.5 -0.5 0.5 40 0.418551772248428 1.68662506324844e-06 0.0012987012987013 0.0360374985078224 6.64639051484773 27.7488738510232 770 592900 693 2.08225316450425e-06 0.00144300144300144 0.0379868588198793 1.47385310015377 6.5410299991899 26.3248931621764 693 480249
"70" "16:25:34" 3 "LtoR" "Large" 16 25 34 "'Choose a square with far more than 20 dots'" "s01" 655 "RIGHT" 654 34 "Con3:Quan2:Item2" 34 25 16 TRUE FALSE FALSE "Expected" 70 -26.5 -0.478091909355162 "s01:t070" -0.25 0.4705882 -0.1316642 0.6876471 -0.06614191 "Vague" 0.5 "Comparison" -0.5 -0.5 0.5 44 1.15245077016348 2.337999981296e-06 0.00152905198776758 0.0391030943502888 6.4831073514572 25.5734237050888 654 427716 770 1.68662506324844e-06 0.0012987012987013 0.0360374985078224 1.23406266479076 6.64639051484773 27.7488738510232 770 592900
"71" "26:35:44" 4 "LtoR" "Small" 26 35 44 "'Choose a square with fewer than 40 dots'" "s01" 791 "LEFT" 649 26 "Con4:Quan1:Item3" 26 35 44 TRUE FALSE FALSE "Expected" 71 -25.5 -0.460050705228552 "s01:t071" 0.25 0.5909091 0.5297187 0.7691558 0.54334858 "Crisp" -0.5 "Comparison" -0.5 -0.5 -0.5 41 0.602026521727191 2.37416340417046e-06 0.00154083204930663 0.039253433598943 6.47543271670409 25.475478405714 649 421201 654 2.337999981296e-06 0.00152905198776758 0.0391030943502888 1.6111610170889 6.4831073514572 25.5734237050888 654 427716
"72" "36:45:54" 2 "LtoR" "Large" 36 45 54 "'Choose a square with 54 dots'" "s01" 385 "RIGHT" 658 54 "Con2:Quan2:Item4" 54 45 36 TRUE FALSE FALSE "Expected" 72 -24.5 -0.442009501101942 "s01:t072" 0.75 0.6666667 0.946145 0.8166667 0.89861574 "Crisp" -0.5 "Matching" 0.5 -0.5 0.5 30 -1.4161957225392 2.30966084940087e-06 0.00151975683890578 0.0389840587792725 6.48920493132532 25.6515106767613 658 432964 649 2.37416340417046e-06 0.00154083204930663 0.039253433598943 1.6296542190198 6.47543271670409 25.475478405714 649 421201
"73" "06:15:24" 4 "RtoL" "Small" 24 15 6 "'Choose a square with fewer than 20 dots'" "s01" 563 "RIGHT" 662 6 "Con4:Quan1:Item1" 6 15 24 TRUE FALSE FALSE "Expected" 73 -23.5 -0.423968296975332 "s01:t073" -0.75 0.25 -1.3441995 0.5125 -1.37582241 "Crisp" -0.5 "Comparison" -0.5 0.5 -0.5 41 0.602026521727191 2.28183386424001e-06 0.00151057401812689 0.0388661037168236 6.49526555593701 25.7293606605372 662 438244 658 2.30966084940087e-06 0.00151975683890578 0.0389840587792725 1.59651847449627 6.48920493132532 25.6515106767613 658 432964
"74" "16:25:34" 3 "RtoL" "Small" 34 25 16 "'Choose a square with far fewer than 30 dots'" "s01" 726 "RIGHT" 705 16 "Con3:Quan1:Item2" 16 25 34 TRUE FALSE FALSE "Expected" 74 -22.5 -0.405927092848722 "s01:t074" -0.25 0.4705882 -0.1316642 0.6876471 -0.06614191 "Vague" 0.5 "Comparison" -0.5 0.5 -0.5 45 1.33592551964224 2.01197122881143e-06 0.00141843971631206 0.0376621788577355 6.55819780281227 26.5518360947035 705 497025 662 2.28183386424001e-06 0.00151057401812689 0.0388661037168236 1.58200884505375 6.49526555593701 25.7293606605372 662 438244
"75" "26:35:44" 4 "RtoL" "Large" 44 35 26 "'Choose a square with more than 30 dots'" "s01" 592 "LEFT" 706 44 "Con4:Quan2:Item3" 44 35 26 TRUE FALSE FALSE "Expected" 75 -21.5 -0.387885888722112 "s01:t075" 0.25 0.5909091 0.5297187 0.7691558 0.54334858 "Crisp" -0.5 "Comparison" -0.5 0.5 0.5 40 0.418551772248428 2.00627563017118e-06 0.00141643059490085 0.0376354964747491 6.55961523749324 26.5706605111728 706 498436 705 2.01197122881143e-06 0.00141843971631206 0.0376621788577355 1.43391428073974 6.55819780281227 26.5518360947035 705 497025
"76" "36:45:54" 3 "LtoR" "Large" 36 45 54 "'Choose a square with far more than 40 dots'" "s01" 617 "RIGHT" 681 54 "Con3:Quan2:Item4" 54 45 36 TRUE FALSE FALSE "Expected" 76 -20.5 -0.369844684595503 "s01:t076" 0.75 0.6666667 0.946145 0.8166667 0.89861574 "Vague" 0.5 "Comparison" -0.5 -0.5 0.5 44 1.15245077016348 2.15628308546859e-06 0.00146842878120411 0.0383200832619674 6.52356230614951 26.0959767013998 681 463761 706 2.00627563017118e-06 0.00141643059490085 0.0376354964747491 1.43063208596372 6.55961523749324 26.5706605111728 706 498436
"77" "06:15:24" 2 "LtoR" "Large" 6 15 24 "'Choose a square with 24 dots'" "s01" 498 "RIGHT" 671 24 "Con2:Quan2:Item1" 24 15 6 TRUE FALSE FALSE "Expected" 77 -19.5 -0.351803480468893 "s01:t077" -0.75 0.25 -1.3441995 0.5125 -1.37582241 "Crisp" -0.5 "Matching" 0.5 -0.5 0.5 30 -1.4161957225392 2.22103273580149e-06 0.0014903129657228 0.0386045718241091 6.50876913697168 25.9036676939772 671 450241 681 2.15628308546859e-06 0.00146842878120411 0.0383200832619674 1.51484297439492 6.52356230614951 26.0959767013998 681 463761
"78" "16:25:34" 3 "LtoR" "Small" 16 25 34 "'Choose a square with far fewer than 30 dots'" "s01" 558 "LEFT" 833 16 "Con3:Quan1:Item2" 16 25 34 TRUE FALSE FALSE "Expected" 78 -18.5 -0.333762276342283 "s01:t078" -0.25 0.4705882 -0.1316642 0.6876471 -0.06614191 "Vague" 0.5 "Comparison" -0.5 -0.5 -0.5 45 1.33592551964224 1.44115269156882e-06 0.00120048019207683 0.0346479464337619 6.72503364216684 28.8617393793236 833 693889 671 2.22103273580149e-06 0.0014903129657228 0.0386045718241091 1.54983785745981 6.50876913697168 25.9036676939772 671 450241
"79" "26:35:44" 2 "LtoR" "Small" 26 35 44 "'Choose a square with 26 dots'" "s01" 530 "MIDDLE" 2718 35 "Con2:Quan1:Item3" 26 35 44 FALSE TRUE FALSE "Near" 79 -17.5 -0.315721072215673 "s01:t079" 0.25 0.5909091 0.5297187 0.7691558 0.54334858 "Crisp" -0.5 "Matching" 0.5 -0.5 -0.5 30 -1.4161957225392 1.35363350427017e-07 0.000367917586460633 0.0191811779216145 7.90765159471109 52.1344415909483 2718 7387524 833 1.44115269156882e-06 0.00120048019207683 0.0346479464337619 1.06313413262681 6.72503364216684 28.8617393793236 833 693889
"80" "36:45:54" 4 "RtoL" "Large" 54 45 36 "'Choose a square with more than 40 dots'" "s01" 507 "LEFT" 1047 54 "Con4:Quan2:Item4" 54 45 36 TRUE FALSE FALSE "Expected" 80 -16.5 -0.297679868089063 "s01:t080" 0.75 0.6666667 0.946145 0.8166667 0.89861574 "Crisp" -0.5 "Comparison" -0.5 0.5 0.5 40 0.418551772248428 9.12234801940141e-07 0.000955109837631328 0.0309048513607707 6.95368421087054 32.3573793747269 1047 1096209 2718 1.35363350427017e-07 0.000367917586460633 0.0191811779216145 -0.839430073819611 7.90765159471109 52.1344415909483 2718 7387524
"81" "06:15:24" 1 "RtoL" "Large" 24 15 6 "'Choose a square with about 20 dots'" "s01" 505 "LEFT" 767 24 "Con1:Quan2:Item1" 24 15 6 TRUE FALSE FALSE "Expected" 81 -15.5 -0.279638663962453 "s01:t081" -0.75 0.25 -1.3441995 0.5125 -1.37582241 "Vague" 0.5 "Matching" 0.5 0.5 0.5 36 -0.315347225666624 1.69984480416938e-06 0.00130378096479791 0.0361079072337059 6.64248680136726 27.6947648482525 767 588289 1047 9.12234801940141e-07 0.000955109837631328 0.0309048513607707 0.602696730876992 6.95368421087054 32.3573793747269 1047 1096209
"82" "16:25:34" 2 "RtoL" "Small" 34 25 16 "'Choose a square with 16 dots'" "s01" 490 "RIGHT" 1312 16 "Con2:Quan1:Item2" 16 25 34 TRUE FALSE FALSE "Expected" 82 -14.5 -0.261597459835843 "s01:t082" -0.25 0.4705882 -0.1316642 0.6876471 -0.06614191 "Crisp" -0.5 "Matching" 0.5 0.5 -0.5 30 -1.4161957225392 5.80941403926234e-07 0.00076219512195122 0.0276078815187116 7.17930796950403 36.2215405525497 1312 1721344 767 1.69984480416938e-06 0.00130378096479791 0.0361079072337059 1.24272362855849 6.64248680136726 27.6947648482525 767 588289
"83" "26:35:44" 2 "RtoL" "Large" 44 35 26 "'Choose a square with 44 dots'" "s01" 439 "LEFT" 792 44 "Con2:Quan2:Item3" 44 35 26 TRUE FALSE FALSE "Expected" 83 -13.5 -0.243556255709233 "s01:t083" 0.25 0.5909091 0.5297187 0.7691558 0.54334858 "Crisp" -0.5 "Matching" 0.5 0.5 0.5 30 -1.4161957225392 1.59422507907356e-06 0.00126262626262626 0.0355334527259351 6.67456139181443 28.1424945589406 792 627264 1312 5.80941403926234e-07 0.00076219512195122 0.0276078815187116 0.197137107591214 7.17930796950403 36.2215405525497 1312 1721344
"84" "36:45:54" 4 "RtoL" "Small" 54 45 36 "'Choose a square with fewer than 50 dots'" "s01" 523 "RIGHT" 1982 36 "Con4:Quan1:Item4" 36 45 54 TRUE FALSE FALSE "Expected" 84 -12.5 -0.225515051582624 "s01:t084" 0.75 0.6666667 0.946145 0.8166667 0.89861574 "Crisp" -0.5 "Comparison" -0.5 0.5 -0.5 41 0.602026521727191 2.54561487290763e-07 0.000504540867810293 0.0224619871741191 7.59186171488993 44.5196585791041 1982 3928324 792 1.59422507907356e-06 0.00126262626262626 0.0355334527259351 1.17206009054418 6.67456139181443 28.1424945589406 792 627264
"85" "06:15:24" 4 "LtoR" "Small" 6 15 24 "'Choose a square with fewer than 20 dots'" "s01" 543 "LEFT" 602 6 "Con4:Quan1:Item1" 6 15 24 TRUE FALSE FALSE "Expected" 85 -11.5 -0.207473847456014 "s01:t085" -0.75 0.25 -1.3441995 0.5125 -1.37582241 "Crisp" -0.5 "Comparison" -0.5 -0.5 -0.5 41 0.602026521727191 2.75935144203706e-06 0.00166112956810631 0.0407569572969611 6.40025744530882 24.5356882927706 602 362404 1982 2.54561487290763e-07 0.000504540867810293 0.0224619871741191 -0.43585836153264 7.59186171488993 44.5196585791041 1982 3928324
"86" "16:25:34" 4 "LtoR" "Large" 16 25 34 "'Choose a square with more than 20 dots'" "s01" 532 "RIGHT" 840 34 "Con4:Quan2:Item2" 34 25 16 TRUE FALSE FALSE "Expected" 86 -10.5 -0.189432643329404 "s01:t086" -0.25 0.4705882 -0.1316642 0.6876471 -0.06614191 "Crisp" -0.5 "Comparison" -0.5 -0.5 0.5 40 0.418551772248428 1.4172335600907e-06 0.00119047619047619 0.0345032779671177 6.73340189183736 28.9827534923789 840 705600 602 2.75935144203706e-06 0.00166112956810631 0.0407569572969611 1.81460237862706 6.40025744530882 24.5356882927706 602 362404
"87" "26:35:44" 4 "RtoL" "Small" 44 35 26 "'Choose a square with fewer than 40 dots'" "s01" 522 "RIGHT" 789 26 "Con4:Quan1:Item3" 26 35 44 TRUE FALSE FALSE "Expected" 87 -9.5 -0.171391439202794 "s01:t087" 0.25 0.5909091 0.5297187 0.7691558 0.54334858 "Crisp" -0.5 "Comparison" -0.5 0.5 -0.5 41 0.602026521727191 1.60637151196506e-06 0.00126742712294043 0.0356009427254452 6.67076632084587 28.0891438103763 789 622521 840 1.4172335600907e-06 0.00119047619047619 0.0345032779671177 1.04533849249536 6.73340189183736 28.9827534923789 840 705600
"88" "36:45:54" 3 "RtoL" "Small" 54 45 36 "'Choose a square with far fewer than 50 dots'" "s01" 745 "RIGHT" 1077 36 "Con3:Quan1:Item4" 36 45 54 TRUE FALSE FALSE "Expected" 88 -8.5 -0.153350235076184 "s01:t088" 0.75 0.6666667 0.946145 0.8166667 0.89861574 "Vague" 0.5 "Comparison" -0.5 0.5 -0.5 45 1.33592551964224 8.62121733312987e-07 0.000928505106778087 0.0304713817668003 6.98193467715639 32.8176781628439 1077 1159929 789 1.60637151196506e-06 0.00126742712294043 0.0356009427254452 1.18036202234462 6.67076632084587 28.0891438103763 789 622521
"89" "06:15:24" 1 "RtoL" "Small" 24 15 6 "'Choose a square with about 10 dots'" "s01" 645 "RIGHT" 1733 6 "Con1:Quan1:Item1" 6 15 24 TRUE FALSE FALSE "Expected" 89 -7.5 -0.135309030949574 "s01:t089" -0.75 0.25 -1.3441995 0.5125 -1.37582241 "Vague" 0.5 "Matching" 0.5 0.5 -0.5 36 -0.315347225666624 3.32968289099051e-07 0.000577034045008655 0.0240215329446032 7.45760928971561 41.6293165929973 1733 3003289 1077 8.62121733312987e-07 0.000928505106778087 0.0304713817668003 0.549375719870509 6.98193467715639 32.8176781628439 1077 1159929
"90" "16:25:34" 2 "LtoR" "Large" 16 25 34 "'Choose a square with 34 dots'" "s01" 558 "RIGHT" 801 34 "Con2:Quan2:Item2" 34 25 16 TRUE FALSE FALSE "Expected" 90 -6.5 -0.117267826822964 "s01:t090" -0.25 0.4705882 -0.1316642 0.6876471 -0.06614191 "Crisp" -0.5 "Matching" 0.5 -0.5 0.5 30 -1.4161957225392 1.55860106203076e-06 0.00124843945068664 0.0353332626668787 6.68586094706836 28.3019433961698 801 641601 1733 3.32968289099051e-07 0.000577034045008655 0.0240215329446032 -0.244018937615001 7.45760928971561 41.6293165929973 1733 3003289
"91" "26:35:44" 4 "LtoR" "Large" 26 35 44 "'Choose a square with more than 30 dots'" "s01" 555 "RIGHT" 999 44 "Con4:Quan2:Item3" 44 35 26 TRUE FALSE FALSE "Expected" 91 -5.5 -0.0992266226963543 "s01:t091" 0.25 0.5909091 0.5297187 0.7691558 0.54334858 "Crisp" -0.5 "Comparison" -0.5 -0.5 0.5 40 0.418551772248428 1.00200300400501e-06 0.001001001001001 0.0316385998584166 6.90675477864855 31.6069612585582 999 998001 801 1.55860106203076e-06 0.00124843945068664 0.0353332626668787 1.14743475005706 6.68586094706836 28.3019433961698 801 641601
"92" "36:45:54" 3 "LtoR" "Small" 36 45 54 "'Choose a square with far fewer than 50 dots'" "s01" 578 "MIDDLE" 1813 45 "Con3:Quan1:Item4" 36 45 54 FALSE TRUE FALSE "Near" 92 -4.5 -0.0811854185697445 "s01:t092" 0.75 0.6666667 0.946145 0.8166667 0.89861574 "Vague" 0.5 "Comparison" -0.5 -0.5 -0.5 45 1.33592551964224 3.04231649279321e-07 0.000551571980143409 0.023485569615051 7.50273821075485 42.5793377120875 1813 3286969 999 1.00200300400501e-06 0.001001001001001 0.0316385998584166 0.692954991809693 6.90675477864855 31.6069612585582 999 998001
"93" "06:15:24" 2 "RtoL" "Large" 24 15 6 "'Choose a square with 24 dots'" "s01" 460 "LEFT" 945 24 "Con2:Quan2:Item1" 24 15 6 TRUE FALSE FALSE "Expected" 93 -3.5 -0.0631442144431346 "s01:t093" -0.75 0.25 -1.3441995 0.5125 -1.37582241 "Crisp" -0.5 "Matching" 0.5 0.5 0.5 30 -1.4161957225392 1.11978947957784e-06 0.00105820105820106 0.0325300024316178 6.85118492749374 30.7408522978788 945 893025 1813 3.04231649279321e-07 0.000551571980143409 0.023485569615051 -0.309947683233251 7.50273821075485 42.5793377120875 1813 3286969
"94" "16:25:34" 2 "RtoL" "Large" 34 25 16 "'Choose a square with 34 dots'" "s01" 559 "LEFT" 1122 34 "Con2:Quan2:Item2" 34 25 16 TRUE FALSE FALSE "Expected" 94 -2.5 -0.0451030103165247 "s01:t094" -0.25 0.4705882 -0.1316642 0.6876471 -0.06614191 "Crisp" -0.5 "Matching" 0.5 0.5 0.5 30 -1.4161957225392 7.94354364659492e-07 0.00089126559714795 0.0298540717013266 7.02286808608264 33.4962684488885 1122 1258884 945 1.11978947957784e-06 0.00105820105820106 0.0325300024316178 0.802606250117125 6.85118492749374 30.7408522978788 945 893025
"95" "26:35:44" 1 "RtoL" "Large" 44 35 26 "'Choose a square with about 40 dots'" "s01" 585 "LEFT" 1139 44 "Con1:Quan2:Item3" 44 35 26 TRUE FALSE FALSE "Expected" 95 -1.5 -0.0270618061899148 "s01:t095" 0.25 0.5909091 0.5297187 0.7691558 0.54334858 "Vague" 0.5 "Matching" 0.5 0.5 0.5 36 -0.315347225666624 7.7081924982329e-07 0.000877963125548727 0.029630442547298 7.03790596344718 33.7490740613724 1139 1297321 1122 7.94354364659492e-07 0.00089126559714795 0.0298540717013266 0.473440527983021 7.02286808608264 33.4962684488885 1122 1258884
"96" "36:45:54" 1 "RtoL" "Large" 54 45 36 "'Choose a square with about 50 dots'" "s01" 649 "LEFT" 1369 54 "Con1:Quan2:Item4" 54 45 36 TRUE FALSE FALSE "Expected" 96 -0.5 -0.00902060206330494 "s01:t096" 0.75 0.6666667 0.946145 0.8166667 0.89861574 "Vague" 0.5 "Matching" 0.5 0.5 0.5 36 -0.315347225666624 5.3357208905745e-07 0.000730460189919649 0.027027027027027 7.22183582528845 37 1369 1874161 1139 7.7081924982329e-07 0.000877963125548727 0.029630442547298 0.445931948951881 7.03790596344718 33.7490740613724 1139 1297321
"97" "06:15:24" 1 "LtoR" "Large" 6 15 24 "'Choose a square with about 20 dots'" "s01" 479 "RIGHT" 1172 24 "Con1:Quan2:Item1" 24 15 6 TRUE FALSE FALSE "Expected" 97 0.5 0.00902060206330494 "s01:t097" -0.75 0.25 -1.3441995 0.5125 -1.37582241 "Vague" 0.5 "Matching" 0.5 -0.5 0.5 36 -0.315347225666624 7.28022458036785e-07 0.000853242320819113 0.0292103118918493 7.06646697013696 34.2344855372474 1172 1373584 1369 5.3357208905745e-07 0.000730460189919649 0.027027027027027 0.125686308792174 7.22183582528845 37 1369 1874161
"98" "16:25:34" 1 "RtoL" "Large" 34 25 16 "'Choose a square with about 30 dots'" "s01" 498 "LEFT" 806 34 "Con1:Quan2:Item2" 34 25 16 TRUE FALSE FALSE "Expected" 98 1.5 0.0270618061899148 "s01:t098" -0.25 0.4705882 -0.1316642 0.6876471 -0.06614191 "Vague" 0.5 "Matching" 0.5 0.5 0.5 36 -0.315347225666624 1.53932355965495e-06 0.00124069478908189 0.0352234976838173 6.69208374250663 28.3901391331568 806 649636 1172 7.28022458036785e-07 0.000853242320819113 0.0292103118918493 0.394251758195824 7.06646697013696 34.2344855372474 1172 1373584
"99" "26:35:44" 2 "LtoR" "Large" 26 35 44 "'Choose a square with 44 dots'" "s01" 540 "RIGHT" 668 44 "Con2:Quan2:Item3" 44 35 26 TRUE FALSE FALSE "Expected" 99 2.5 0.0451030103165247 "s01:t099" 0.25 0.5909091 0.5297187 0.7691558 0.54334858 "Crisp" -0.5 "Matching" 0.5 -0.5 0.5 30 -1.4161957225392 2.24102692817957e-06 0.00149700598802395 0.0386911616267068 6.50428817353665 25.8456959666402 668 446224 806 1.53932355965495e-06 0.00124069478908189 0.0352234976838173 1.13393258069766 6.69208374250663 28.3901391331568 806 649636
"100" "36:45:54" 1 "RtoL" "Small" 54 45 36 "'Choose a square with about 40 dots'" "s01" 595 "LEFT" 846 54 "Con1:Quan1:Item4" 36 45 54 FALSE FALSE TRUE "Far" 100 3.5 0.0631442144431346 "s01:t100" 0.75 0.6666667 0.946145 0.8166667 0.89861574 "Vague" 0.5 "Matching" 0.5 0.5 -0.5 36 -0.315347225666624 1.39720224223016e-06 0.00118203309692671 0.0343807082086264 6.74051935960622 29.086079144498 846 715716 668 2.24102692817957e-06 0.00149700598802395 0.0386911616267068 1.56048925234791 6.50428817353665 25.8456959666402 668 446224
"101" "06:15:24" 3 "LtoR" "Large" 6 15 24 "'Choose a square with far more than 10 dots'" "s01" 1134 "RIGHT" 613 24 "Con3:Quan2:Item1" 24 15 6 TRUE FALSE FALSE "Expected" 101 4.5 0.0811854185697445 "s01:t101" -0.75 0.25 -1.3441995 0.5125 -1.37582241 "Vague" 0.5 "Comparison" -0.5 -0.5 0.5 44 1.15245077016348 2.66120941322994e-06 0.00163132137030995 0.040389619586101 6.41836493593621 24.7588368062799 613 375769 846 1.39720224223016e-06 0.00118203309692671 0.0343807082086264 1.03026121018425 6.74051935960622 29.086079144498 846 715716
"102" "16:25:34" 2 "LtoR" "Small" 16 25 34 "'Choose a square with 16 dots'" "s01" 599 "LEFT" 967 16 "Con2:Quan1:Item2" 16 25 34 TRUE FALSE FALSE "Expected" 102 5.5 0.0992266226963543 "s01:t102" -0.25 0.4705882 -0.1316642 0.6876471 -0.06614191 "Crisp" -0.5 "Matching" 0.5 -0.5 -0.5 30 -1.4161957225392 1.06941692181172e-06 0.00103412616339193 0.0321578320692166 6.87419849545329 31.0966236109324 967 935089 613 2.66120941322994e-06 0.00163132137030995 0.040389619586101 1.76941623778506 6.41836493593621 24.7588368062799 613 375769
"103" "26:35:44" 3 "LtoR" "Large" 26 35 44 "'Choose a square with far more than 30 dots'" "s01" 684 "RIGHT" 643 44 "Con3:Quan2:Item3" 44 35 26 TRUE FALSE FALSE "Expected" 103 6.5 0.117267826822964 "s01:t103" 0.25 0.5909091 0.5297187 0.7691558 0.54334858 "Vague" 0.5 "Comparison" -0.5 -0.5 0.5 44 1.15245077016348 2.41867799897932e-06 0.0015552099533437 0.039436150336255 6.46614472423762 25.3574446662119 643 413449 967 1.06941692181172e-06 0.00103412616339193 0.0321578320692166 0.756825645742747 6.87419849545329 31.0966236109324 967 935089
"104" "36:45:54" 3 "RtoL" "Large" 54 45 36 "'Choose a square with far more than 40 dots'" "s01" 667 "LEFT" 619 54 "Con3:Quan2:Item4" 54 45 36 TRUE FALSE FALSE "Expected" 104 7.5 0.135309030949574 "s01:t104" 0.75 0.6666667 0.946145 0.8166667 0.89861574 "Vague" 0.5 "Comparison" -0.5 0.5 0.5 44 1.15245077016348 2.60986895847959e-06 0.00161550888529887 0.040193393552907 6.4281052726846 24.8797106092495 619 383161 643 2.41867799897932e-06 0.0015552099533437 0.039436150336255 1.65213016957504 6.46614472423762 25.3574446662119 643 413449
"105" "06:15:24" 4 "RtoL" "Large" 24 15 6 "'Choose a square with more than 10 dots'" "s01" 644 "LEFT" 820 24 "Con4:Quan2:Item1" 24 15 6 TRUE FALSE FALSE "Expected" 105 8.5 0.153350235076184 "s01:t105" -0.75 0.25 -1.3441995 0.5125 -1.37582241 "Crisp" -0.5 "Comparison" -0.5 0.5 0.5 40 0.418551772248428 1.48720999405116e-06 0.00121951219512195 0.0349215147884789 6.7093043402583 28.6356421265527 820 672400 619 2.60986895847959e-06 0.00161550888529887 0.040193393552907 1.74527851135342 6.4281052726846 24.8797106092495 619 383161
"106" "16:25:34" 1 "RtoL" "Small" 34 25 16 "'Choose a square with about 20 dots'" "s01" 567 "MIDDLE" 1776 25 "Con1:Quan1:Item2" 16 25 34 FALSE TRUE FALSE "Near" 106 9.5 0.171391439202794 "s01:t106" -0.25 0.4705882 -0.1316642 0.6876471 -0.06614191 "Vague" 0.5 "Matching" 0.5 0.5 -0.5 36 -0.315347225666624 3.17040012985959e-07 0.000563063063063063 0.0237289498938125 7.48211892355212 42.142615011411 1776 3154176 820 1.48720999405116e-06 0.00121951219512195 0.0349215147884789 1.09678572308621 6.7093043402583 28.6356421265527 820 672400
"107" "26:35:44" 1 "RtoL" "Small" 44 35 26 "'Choose a square with about 30 dots'" "s01" 512 "LEFT" 1381 44 "Con1:Quan1:Item3" 26 35 44 FALSE FALSE TRUE "Far" 107 10.5 0.189432643329404 "s01:t107" 0.25 0.5909091 0.5297187 0.7691558 0.54334858 "Vague" 0.5 "Matching" 0.5 0.5 -0.5 36 -0.315347225666624 5.24339581189003e-07 0.000724112961622013 0.0269093471050862 7.23056315340929 37.1618083521241 1381 1907161 1776 3.17040012985959e-07 0.000563063063063063 0.0237289498938125 -0.280009522164714 7.48211892355212 42.142615011411 1776 3154176
"108" "36:45:54" 4 "LtoR" "Small" 36 45 54 "'Choose a square with fewer than 50 dots'" "s01" 563 "LEFT" 813 36 "Con4:Quan1:Item4" 36 45 54 TRUE FALSE FALSE "Expected" 108 11.5 0.207473847456014 "s01:t108" 0.75 0.6666667 0.946145 0.8166667 0.89861574 "Crisp" -0.5 "Comparison" -0.5 -0.5 -0.5 41 0.602026521727191 1.51293025845388e-06 0.001230012300123 0.0350715311915947 6.70073110954781 28.5131548587665 813 660969 1381 5.24339581189003e-07 0.000724112961622013 0.0269093471050862 0.111210524330403 7.23056315340929 37.1618083521241 1381 1907161
"109" "06:15:24" 1 "LtoR" "Small" 6 15 24 "'Choose a square with about 10 dots'" "s01" 678 "LEFT" 645 6 "Con1:Quan1:Item1" 6 15 24 TRUE FALSE FALSE "Expected" 109 12.5 0.225515051582624 "s01:t109" -0.75 0.25 -1.3441995 0.5125 -1.37582241 "Vague" 0.5 "Matching" 0.5 -0.5 -0.5 36 -0.315347225666624 2.40370170061895e-06 0.00155038759689922 0.0393749615479079 6.46925031679577 25.3968501984006 645 416025 813 1.51293025845388e-06 0.001230012300123 0.0350715311915947 1.1152392118498 6.70073110954781 28.5131548587665 813 660969
"110" "16:25:34" 4 "RtoL" "Large" 34 25 16 "'Choose a square with more than 20 dots'" "s01" 815 "LEFT" 1080 34 "Con4:Quan2:Item2" 34 25 16 TRUE FALSE FALSE "Expected" 110 13.5 0.243556255709233 "s01:t110" -0.25 0.4705882 -0.1316642 0.6876471 -0.06614191 "Crisp" -0.5 "Comparison" -0.5 0.5 0.5 40 0.418551772248428 8.57338820301783e-07 0.000925925925925926 0.0304290309725092 6.98471632011827 32.86335345031 1080 1166400 645 2.40370170061895e-06 0.00155038759689922 0.0393749615479079 1.64460334854235 6.46925031679577 25.3968501984006 645 416025
"111" "26:35:44" 3 "RtoL" "Large" 44 35 26 "'Choose a square with far more than 30 dots'" "s01" 608 "LEFT" 832 44 "Con3:Quan2:Item3" 44 35 26 TRUE FALSE FALSE "Expected" 111 14.5 0.261597459835843 "s01:t111" 0.25 0.5909091 0.5297187 0.7691558 0.54334858 "Vague" 0.5 "Comparison" -0.5 0.5 0.5 44 1.15245077016348 1.44461908284024e-06 0.00120192307692308 0.0346687622640768 6.72383244082121 28.8444102037119 832 692224 1080 8.57338820301783e-07 0.000925925925925926 0.0304290309725092 0.544166156847088 6.98471632011827 32.86335345031 1080 1166400
"112" "36:45:54" 2 "LtoR" "Small" 36 45 54 "'Choose a square with 36 dots'" "s01" 474 "MIDDLE" 936 45 "Con2:Quan1:Item4" 36 45 54 FALSE TRUE FALSE "Near" 112 15.5 0.279638663962453 "s01:t112" 0.75 0.6666667 0.946145 0.8166667 0.89861574 "Crisp" -0.5 "Matching" 0.5 -0.5 -0.5 30 -1.4161957225392 1.14142742347871e-06 0.00106837606837607 0.0326860225230307 6.84161547647759 30.5941170815567 936 876096 832 1.44461908284024e-06 0.00120192307692308 0.0346687622640768 1.06569468389216 6.72383244082121 28.8444102037119 832 692224
"113" "06:15:24" 2 "RtoL" "Small" 24 15 6 "'Choose a square with 6 dots'" "s01" 543 "RIGHT" 793 6 "Con2:Quan1:Item1" 6 15 24 TRUE FALSE FALSE "Expected" 113 16.5 0.297679868089063 "s01:t113" -0.75 0.25 -1.3441995 0.5125 -1.37582241 "Crisp" -0.5 "Matching" 0.5 0.5 -0.5 29 -1.59967047201796 1.59020687001172e-06 0.00126103404791929 0.0355110412114217 6.67582322163485 28.1602556806574 793 628849 936 1.14142742347871e-06 0.00106837606837607 0.0326860225230307 0.821798251418208 6.84161547647759 30.5941170815567 936 876096
"114" "16:25:34" 3 "RtoL" "Large" 34 25 16 "'Choose a square with far more than 20 dots'" "s01" 620 "LEFT" 766 34 "Con3:Quan2:Item2" 34 25 16 TRUE FALSE FALSE "Expected" 114 17.5 0.315721072215673 "s01:t114" -0.25 0.4705882 -0.1316642 0.6876471 -0.06614191 "Vague" 0.5 "Comparison" -0.5 0.5 0.5 44 1.15245077016348 1.70428593827758e-06 0.00130548302872063 0.0361314686764962 6.64118216974059 27.6767050061961 766 586756 793 1.59020687001172e-06 0.00126103404791929 0.0355110412114217 1.16930325447388 6.67582322163485 28.1602556806574 793 628849
"115" "26:35:44" 2 "RtoL" "Small" 44 35 26 "'Choose a square with 26 dots'" "s01" 505 "MIDDLE" 1392 35 "Con2:Quan1:Item3" 26 35 44 FALSE TRUE FALSE "Near" 115 18.5 0.333762276342283 "s01:t115" 0.25 0.5909091 0.5297187 0.7691558 0.54334858 "Crisp" -0.5 "Matching" 0.5 0.5 -0.5 30 -1.4161957225392 5.16085348130532e-07 0.000718390804597701 0.0268028133709449 7.23849684089437 37.3095162123553 1392 1937664 766 1.70428593827758e-06 0.00130548302872063 0.0361314686764962 1.24562191708397 6.64118216974059 27.6767050061961 766 586756
"116" "36:45:54" 4 "LtoR" "Large" 36 45 54 "'Choose a square with more than 40 dots'" "s01" 469 "RIGHT" 1083 54 "Con4:Quan2:Item4" 54 45 36 TRUE FALSE FALSE "Expected" 116 19.5 0.351803480468893 "s01:t116" 0.75 0.6666667 0.946145 0.8166667 0.89861574 "Crisp" -0.5 "Comparison" -0.5 -0.5 0.5 40 0.418551772248428 8.52595599413073e-07 0.000923361034164358 0.0303868562731382 6.98749024700099 32.9089653438087 1083 1172889 1392 5.16085348130532e-07 0.000718390804597701 0.0268028133709449 0.0981058302763568 7.23849684089437 37.3095162123553 1392 1937664
"117" "06:15:24" 2 "LtoR" "Small" 6 15 24 "'Choose a square with 6 dots'" "s01" 539 "LEFT" 591 6 "Con2:Quan1:Item1" 6 15 24 TRUE FALSE FALSE "Expected" 117 20.5 0.369844684595503 "s01:t117" -0.75 0.25 -1.3441995 0.5125 -1.37582241 "Crisp" -0.5 "Matching" 0.5 -0.5 -0.5 29 -1.59967047201796 2.86302432711771e-06 0.00169204737732657 0.0411345034894864 6.3818160174061 24.3104915622864 591 349281 1083 8.52595599413073e-07 0.000923361034164358 0.0303868562731382 0.538978255225755 6.98749024700099 32.9089653438087 1083 1172889
"118" "16:25:34" 1 "LtoR" "Small" 16 25 34 "'Choose a square with about 20 dots'" "s01" 794 "MIDDLE" 811 25 "Con1:Quan1:Item2" 16 25 34 FALSE TRUE FALSE "Near" 118 21.5 0.387885888722112 "s01:t118" -0.25 0.4705882 -0.1316642 0.6876471 -0.06614191 "Vague" 0.5 "Matching" 0.5 -0.5 -0.5 36 -0.315347225666624 1.52040150763014e-06 0.00123304562268804 0.0351147493610312 6.69826805411541 28.4780617317963 811 657721 591 2.86302432711771e-06 0.00169204737732657 0.0411345034894864 1.86104426282637 6.3818160174061 24.3104915622864 591 349281
"119" "26:35:44" 1 "LtoR" "Large" 26 35 44 "'Choose a square with about 40 dots'" "s01" 493 "RIGHT" 723 44 "Con1:Quan2:Item3" 44 35 26 TRUE FALSE FALSE "Expected" 119 22.5 0.405927092848722 "s01:t119" 0.25 0.5909091 0.5297187 0.7691558 0.54334858 "Vague" 0.5 "Matching" 0.5 -0.5 0.5 36 -0.315347225666624 1.9130371569207e-06 0.00138312586445367 0.0371904001652801 6.58340922215876 26.8886593194975 723 522729 811 1.52040150763014e-06 0.00123304562268804 0.0351147493610312 1.12055547052228 6.69826805411541 28.4780617317963 811 657721
"120" "36:45:54" 1 "LtoR" "Large" 36 45 54 "'Choose a square with about 50 dots'" "s01" 521 "RIGHT" 661 54 "Con1:Quan2:Item4" 54 45 36 TRUE FALSE FALSE "Expected" 120 23.5 0.423968296975332 "s01:t120" 0.75 0.6666667 0.946145 0.8166667 0.89861574 "Vague" 0.5 "Matching" 0.5 -0.5 0.5 36 -0.315347225666624 2.2887432739557e-06 0.00151285930408472 0.0388954920792207 6.49375383985169 25.7099202643649 661 436921 723 1.9130371569207e-06 0.00138312586445367 0.0371904001652801 1.37588087493007 6.58340922215876 26.8886593194975 723 522729
"121" "06:15:24" 3 "RtoL" "Large" 24 15 6 "'Choose a square with far more than 10 dots'" "s01" 621 "LEFT" 1423 24 "Con3:Quan2:Item1" 24 15 6 TRUE FALSE FALSE "Expected" 121 24.5 0.442009501101942 "s01:t121" -0.75 0.25 -1.3441995 0.5125 -1.37582241 "Vague" 0.5 "Comparison" -0.5 0.5 0.5 44 1.15245077016348 4.93844475534698e-07 0.000702740688685875 0.0265092566603795 7.26052259808985 37.72267222772 1423 2024929 661 2.2887432739557e-06 0.00151285930408472 0.0388954920792207 1.58562390183429 6.49375383985169 25.7099202643649 661 436921
"122" "16:25:34" 4 "RtoL" "Small" 34 25 16 "'Choose a square with fewer than 30 dots'" "s01" 601 "RIGHT" 963 16 "Con4:Quan1:Item2" 16 25 34 TRUE FALSE FALSE "Expected" 122 25.5 0.460050705228552 "s01:t122" -0.25 0.4705882 -0.1316642 0.6876471 -0.06614191 "Crisp" -0.5 "Comparison" -0.5 0.5 -0.5 41 0.602026521727191 1.07831941762125e-06 0.00103842159916926 0.0322245496348555 6.87005341179813 31.0322412983658 963 927369 1423 4.93844475534698e-07 0.000702740688685875 0.0265092566603795 0.0619954760258757 7.26052259808985 37.72267222772 1423 2024929
"123" "26:35:44" 1 "LtoR" "Small" 26 35 44 "'Choose a square with about 30 dots'" "s01" 657 "RIGHT" 927 44 "Con1:Quan1:Item3" 26 35 44 FALSE FALSE TRUE "Far" 123 26.5 0.478091909355162 "s01:t123" 0.25 0.5909091 0.5297187 0.7691558 0.54334858 "Vague" 0.5 "Matching" 0.5 -0.5 -0.5 36 -0.315347225666624 1.16369865325155e-06 0.00107874865156419 0.0328443092721431 6.83195356556585 30.4466746952767 927 859329 963 1.07831941762125e-06 0.00103842159916926 0.0322245496348555 0.765032560601922 6.87005341179813 31.0322412983658 963 927369
"124" "36:45:54" 2 "RtoL" "Small" 54 45 36 "'Choose a square with 36 dots'" "s01" 526 "LEFT" 889 54 "Con2:Quan1:Item4" 36 45 54 FALSE FALSE TRUE "Far" 124 27.5 0.496133113481772 "s01:t124" 0.75 0.6666667 0.946145 0.8166667 0.89861574 "Crisp" -0.5 "Matching" 0.5 0.5 -0.5 30 -1.4161957225392 1.26530865306629e-06 0.00112485939257593 0.0335389235452769 6.7900972355139 29.8161030317511 889 790321 927 1.16369865325155e-06 0.00107874865156419 0.0328443092721431 0.841269073844985 6.83195356556585 30.4466746952767 927 859329
"125" "06:15:24" 3 "RtoL" "Small" 24 15 6 "'Choose a square with far fewer than 20 dots'" "s01" 497 "RIGHT" 694 6 "Con3:Quan1:Item1" 6 15 24 TRUE FALSE FALSE "Expected" 125 28.5 0.514174317608382 "s01:t125" -0.75 0.25 -1.3441995 0.5125 -1.37582241 "Vague" 0.5 "Comparison" -0.5 0.5 -0.5 45 1.33592551964224 2.07625675821575e-06 0.00144092219020173 0.0379594809000562 6.5424719605068 26.343879744639 694 481636 889 1.26530865306629e-06 0.00112485939257593 0.0335389235452769 0.926713441381307 6.7900972355139 29.8161030317511 889 790321
"126" "16:25:34" 4 "LtoR" "Small" 16 25 34 "'Choose a square with fewer than 30 dots'" "s01" 669 "LEFT" 612 16 "Con4:Quan1:Item2" 16 25 34 TRUE FALSE FALSE "Expected" 126 29.5 0.532215521734992 "s01:t126" -0.25 0.4705882 -0.1316642 0.6876471 -0.06614191 "Crisp" -0.5 "Comparison" -0.5 -0.5 -0.5 41 0.602026521727191 2.66991328121663e-06 0.00163398692810458 0.0404226041727222 6.41673228251233 24.738633753706 612 374544 694 2.07625675821575e-06 0.00144092219020173 0.0379594809000562 1.47048534752584 6.5424719605068 26.343879744639 694 481636
"127" "26:35:44" 3 "RtoL" "Small" 44 35 26 "'Choose a square with far fewer than 40 dots'" "s01" 661 "RIGHT" 621 26 "Con3:Quan1:Item3" 26 35 44 TRUE FALSE FALSE "Expected" 127 30.5 0.550256725861601 "s01:t127" 0.25 0.5909091 0.5297187 0.7691558 0.54334858 "Vague" 0.5 "Comparison" -0.5 0.5 -0.5 45 1.33592551964224 2.59308527879556e-06 0.00161030595813205 0.0401286176952564 6.43133108193348 24.9198715887542 621 385641 612 2.66991328121663e-06 0.00163398692810458 0.0404226041727222 1.7734736654126 6.41673228251233 24.738633753706 612 374544
"128" "36:45:54" 1 "LtoR" "Small" 36 45 54 "'Choose a square with about 40 dots'" "s01" 551 "RIGHT" 651 54 "Con1:Quan1:Item4" 36 45 54 FALSE FALSE TRUE "Far" 128 31.5 0.568297929988211 "s01:t128" 0.75 0.6666667 0.946145 0.8166667 0.89861574 "Vague" 0.5 "Matching" 0.5 -0.5 -0.5 36 -0.315347225666624 2.3595980188815e-06 0.00153609831029186 0.039193090083481 6.47850964220857 25.5147016443461 651 423801 621 2.59308527879556e-06 0.00161030595813205 0.0401286176952564 1.73731044561874 6.43133108193348 24.9198715887542 621 385641
"129" "06:15:24" 4 "RtoL" "Small" 24 15 6 "'Choose a square with fewer than 20 dots'" "s01" 1276 "RIGHT" 757 6 "Con4:Quan1:Item1" 6 15 24 TRUE FALSE FALSE "Expected" 129 32.5 0.586339134114821 "s01:t129" -0.75 0.25 -1.3441995 0.5125 -1.37582241 "Crisp" -0.5 "Comparison" -0.5 0.5 -0.5 41 0.602026521727191 1.74505147029312e-06 0.00132100396301189 0.0363456182092407 6.62936325343745 27.5136329843952 757 573049 651 2.3595980188815e-06 0.00153609831029186 0.039193090083481 1.6222313748414 6.47850964220857 25.5147016443461 651 423801
"130" "16:25:34" 4 "RtoL" "Large" 34 25 16 "'Choose a square with more than 20 dots'" "s01" 745 "LEFT" 621 34 "Con4:Quan2:Item2" 34 25 16 TRUE FALSE FALSE "Expected" 130 33.5 0.604380338241431 "s01:t130" -0.25 0.4705882 -0.1316642 0.6876471 -0.06614191 "Crisp" -0.5 "Comparison" -0.5 0.5 0.5 40 0.418551772248428 2.59308527879556e-06 0.00161030595813205 0.0401286176952564 6.43133108193348 24.9198715887542 621 385641 757 1.74505147029312e-06 0.00132100396301189 0.0363456182092407 1.27196440973244 6.62936325343745 27.5136329843952 757 573049
"131" "26:35:44" 1 "RtoL" "Small" 44 35 26 "'Choose a square with about 30 dots'" "s01" 702 "LEFT" 805 44 "Con1:Quan1:Item3" 26 35 44 FALSE FALSE TRUE "Far" 131 34.5 0.622421542368041 "s01:t131" 0.25 0.5909091 0.5297187 0.7691558 0.54334858 "Vague" 0.5 "Matching" 0.5 0.5 -0.5 36 -0.315347225666624 1.54315034142201e-06 0.00124223602484472 0.0352453688425121 6.69084227741856 28.3725219182222 805 648025 621 2.59308527879556e-06 0.00161030595813205 0.0401286176952564 1.73731044561874 6.43133108193348 24.9198715887542 621 385641
"132" "36:45:54" 1 "LtoR" "Large" 36 45 54 "'Choose a square with about 50 dots'" "s01" 648 "RIGHT" 736 54 "Con1:Quan2:Item4" 54 45 36 TRUE FALSE FALSE "Expected" 132 35.5 0.640462746494651 "s01:t132" 0.75 0.6666667 0.946145 0.8166667 0.89861574 "Vague" 0.5 "Matching" 0.5 -0.5 0.5 36 -0.315347225666624 1.84605387523629e-06 0.00135869565217391 0.0368604890387243 6.60123011872888 27.1293199325011 736 541696 805 1.54315034142201e-06 0.00124223602484472 0.0352453688425121 1.13662294770311 6.69084227741856 28.3725219182222 805 648025
"133" "06:15:24" 2 "RtoL" "Small" 24 15 6 "'Choose a square with 6 dots'" "s01" 524 "RIGHT" 569 6 "Con2:Quan1:Item1" 6 15 24 TRUE FALSE FALSE "Expected" 133 36.5 0.658503950621261 "s01:t133" -0.75 0.25 -1.3441995 0.5125 -1.37582241 "Crisp" -0.5 "Matching" 0.5 0.5 -0.5 29 -1.59967047201796 3.08869814461902e-06 0.00175746924428822 0.0419221808150319 6.34388043412633 23.8537208837531 569 323761 736 1.84605387523629e-06 0.00135869565217391 0.0368604890387243 1.33529857099241 6.60123011872888 27.1293199325011 736 541696
"134" "16:25:34" 2 "RtoL" "Large" 34 25 16 "'Choose a square with 34 dots'" "s01" 540 "LEFT" 671 34 "Con2:Quan2:Item2" 34 25 16 TRUE FALSE FALSE "Expected" 134 37.5 0.676545154747871 "s01:t134" -0.25 0.4705882 -0.1316642 0.6876471 -0.06614191 "Crisp" -0.5 "Matching" 0.5 0.5 0.5 30 -1.4161957225392 2.22103273580149e-06 0.0014903129657228 0.0386045718241091 6.50876913697168 25.9036676939772 671 450241 569 3.08869814461902e-06 0.00175746924428822 0.0419221808150319 1.95793629845976 6.34388043412633 23.8537208837531 569 323761
"135" "26:35:44" 1 "RtoL" "Large" 44 35 26 "'Choose a square with about 40 dots'" "s01" 495 "LEFT" 636 44 "Con1:Quan2:Item3" 44 35 26 TRUE FALSE FALSE "Expected" 135 38.5 0.694586358874481 "s01:t135" 0.25 0.5909091 0.5297187 0.7691558 0.54334858 "Vague" 0.5 "Matching" 0.5 0.5 0.5 36 -0.315347225666624 2.47221233337289e-06 0.00157232704402516 0.0396525792859072 6.45519856334012 25.219040425837 636 404496 671 2.22103273580149e-06 0.0014903129657228 0.0386045718241091 1.54983785745981 6.50876913697168 25.9036676939772 671 450241
"136" "36:45:54" 3 "LtoR" "Large" 36 45 54 "'Choose a square with far more than 40 dots'" "s01" 510 "RIGHT" 554 54 "Con3:Quan2:Item4" 54 45 36 TRUE FALSE FALSE "Expected" 136 39.5 0.71262756300109 "s01:t136" 0.75 0.6666667 0.946145 0.8166667 0.89861574 "Vague" 0.5 "Comparison" -0.5 -0.5 0.5 44 1.15245077016348 3.25822049029702e-06 0.00180505415162455 0.0424859288662087 6.31716468674728 23.5372045918796 554 306916 636 2.47221233337289e-06 0.00157232704402516 0.0396525792859072 1.67875305285695 6.45519856334012 25.219040425837 636 404496
"137" "06:15:24" 3 "LtoR" "Small" 6 15 24 "'Choose a square with far fewer than 20 dots'" "s01" 598 "LEFT" 577 6 "Con3:Quan1:Item1" 6 15 24 TRUE FALSE FALSE "Expected" 137 40.5 0.7306687671277 "s01:t137" -0.75 0.25 -1.3441995 0.5125 -1.37582241 "Vague" 0.5 "Comparison" -0.5 -0.5 -0.5 45 1.33592551964224 3.00364341946781e-06 0.00173310225303293 0.0416305447121813 6.3578422665081 24.0208242989286 577 332929 554 3.25822049029702e-06 0.00180505415162455 0.0424859288662087 2.02728283731696 6.31716468674728 23.5372045918796 554 306916
"138" "16:25:34" 2 "LtoR" "Small" 16 25 34 "'Choose a square with 16 dots'" "s01" 659 "LEFT" 698 16 "Con2:Quan1:Item2" 16 25 34 TRUE FALSE FALSE "Expected" 138 41.5 0.74870997125431 "s01:t138" -0.25 0.4705882 -0.1316642 0.6876471 -0.06614191 "Crisp" -0.5 "Matching" 0.5 -0.5 -0.5 30 -1.4161957225392 2.05252830436532e-06 0.00143266475644699 0.0378505582052232 6.54821910276237 26.4196896272458 698 487204 577 3.00364341946781e-06 0.00173310225303293 0.0416305447121813 1.92206219779321 6.3578422665081 24.0208242989286 577 332929
"139" "26:35:44" 1 "LtoR" "Large" 26 35 44 "'Choose a square with about 40 dots'" "s01" 512 "RIGHT" 565 44 "Con1:Quan2:Item3" 44 35 26 TRUE FALSE FALSE "Expected" 139 42.5 0.76675117538092 "s01:t139" 0.25 0.5909091 0.5297187 0.7691558 0.54334858 "Vague" 0.5 "Matching" 0.5 -0.5 0.5 36 -0.315347225666624 3.13258673349518e-06 0.00176991150442478 0.0420703161911671 6.33682573114644 23.7697286480094 565 319225 698 2.05252830436532e-06 0.00143266475644699 0.0378505582052232 1.45708678787868 6.54821910276237 26.4196896272458 698 487204
"140" "36:45:54" 2 "RtoL" "Large" 54 45 36 "'Choose a square with 54 dots'" "s01" 496 "LEFT" 654 54 "Con2:Quan2:Item4" 54 45 36 TRUE FALSE FALSE "Expected" 140 43.5 0.78479237950753 "s01:t140" 0.75 0.6666667 0.946145 0.8166667 0.89861574 "Crisp" -0.5 "Matching" 0.5 0.5 0.5 30 -1.4161957225392 2.337999981296e-06 0.00152905198776758 0.0391030943502888 6.4831073514572 25.5734237050888 654 427716 565 3.13258673349518e-06 0.00176991150442478 0.0420703161911671 1.97615840245789 6.33682573114644 23.7697286480094 565 319225
"141" "06:15:24" 2 "LtoR" "Large" 6 15 24 "'Choose a square with 24 dots'" "s01" 558 "RIGHT" 673 24 "Con2:Quan2:Item1" 24 15 6 TRUE FALSE FALSE "Expected" 141 44.5 0.80283358363414 "s01:t141" -0.75 0.25 -1.3441995 0.5125 -1.37582241 "Crisp" -0.5 "Matching" 0.5 -0.5 0.5 30 -1.4161957225392 2.2078515617238e-06 0.00148588410104012 0.038547167224585 6.51174532964473 25.9422435421457 673 452929 654 2.337999981296e-06 0.00152905198776758 0.0391030943502888 1.6111610170889 6.4831073514572 25.5734237050888 654 427716
"142" "16:25:34" 3 "RtoL" "Small" 34 25 16 "'Choose a square with far fewer than 30 dots'" "s01" 529 "RIGHT" 892 16 "Con3:Quan1:Item2" 16 25 34 TRUE FALSE FALSE "Expected" 142 45.5 0.82087478776075 "s01:t142" -0.25 0.4705882 -0.1316642 0.6876471 -0.06614191 "Vague" 0.5 "Comparison" -0.5 0.5 -0.5 45 1.33592551964224 1.2568119206097e-06 0.00112107623318386 0.0334824765091213 6.79346613258001 29.8663690461362 892 795664 673 2.2078515617238e-06 0.00148588410104012 0.038547167224585 1.54277652876311 6.51174532964473 25.9422435421457 673 452929
"143" "26:35:44" 2 "LtoR" "Large" 26 35 44 "'Choose a square with 44 dots'" "s01" 470 "RIGHT" 636 44 "Con2:Quan2:Item3" 44 35 26 TRUE FALSE FALSE "Expected" 143 46.5 0.83891599188736 "s01:t143" 0.25 0.5909091 0.5297187 0.7691558 0.54334858 "Crisp" -0.5 "Matching" 0.5 -0.5 0.5 30 -1.4161957225392 2.47221233337289e-06 0.00157232704402516 0.0396525792859072 6.45519856334012 25.219040425837 636 404496 892 1.2568119206097e-06 0.00112107623318386 0.0334824765091213 0.919769902369565 6.79346613258001 29.8663690461362 892 795664
"144" "36:45:54" 1 "RtoL" "Large" 54 45 36 "'Choose a square with about 50 dots'" "s01" 539 "LEFT" 559 54 "Con1:Quan2:Item4" 54 45 36 TRUE FALSE FALSE "Expected" 144 47.5 0.856957196013969 "s01:t144" 0.75 0.6666667 0.946145 0.8166667 0.89861574 "Vague" 0.5 "Matching" 0.5 0.5 0.5 36 -0.315347225666624 3.20019457182997e-06 0.00178890876565295 0.0422954934437814 6.3261494731551 23.6431808350738 559 312481 636 2.47221233337289e-06 0.00157232704402516 0.0396525792859072 1.67875305285695 6.45519856334012 25.219040425837 636 404496
"145" "06:15:24" 2 "LtoR" "Small" 6 15 24 "'Choose a square with 6 dots'" "s01" 491 "LEFT" 570 6 "Con2:Quan1:Item1" 6 15 24 TRUE FALSE FALSE "Expected" 145 48.5 0.874998400140579 "s01:t145" -0.75 0.25 -1.3441995 0.5125 -1.37582241 "Crisp" -0.5 "Matching" 0.5 -0.5 -0.5 29 -1.59967047201796 3.07787011388119e-06 0.00175438596491228 0.0418853908291695 6.3456363608286 23.8746727726266 570 324900 559 3.20019457182997e-06 0.00178890876565295 0.0422954934437814 2.00385741279695 6.3261494731551 23.6431808350738 559 312481
"146" "16:25:34" 1 "RtoL" "Small" 34 25 16 "'Choose a square with about 20 dots'" "s01" 531 "RIGHT" 1415 16 "Con1:Quan1:Item2" 16 25 34 TRUE FALSE FALSE "Expected" 146 49.5 0.893039604267189 "s01:t146" -0.25 0.4705882 -0.1316642 0.6876471 -0.06614191 "Vague" 0.5 "Matching" 0.5 0.5 -0.5 36 -0.315347225666624 4.99444368140444e-07 0.000706713780918728 0.0265840888675675 7.25488481007734 37.6164857476081 1415 2002225 570 3.07787011388119e-06 0.00175438596491228 0.0418853908291695 1.95341076940679 6.3456363608286 23.8746727726266 570 324900
"147" "26:35:44" 2 "LtoR" "Small" 26 35 44 "'Choose a square with 26 dots'" "s01" 436 "MIDDLE" 1715 35 "Con2:Quan1:Item3" 26 35 44 FALSE TRUE FALSE "Near" 147 50.5 0.911080808393799 "s01:t147" 0.25 0.5909091 0.5297187 0.7691558 0.54334858 "Crisp" -0.5 "Matching" 0.5 -0.5 -0.5 30 -1.4161957225392 3.39994390092563e-07 0.000583090379008746 0.0241472644208148 7.44716835960004 41.4125584816973 1715 2941225 1415 4.99444368140444e-07 0.000706713780918728 0.0265840888675675 0.0712005713742363 7.25488481007734 37.6164857476081 1415 2002225
"148" "36:45:54" 3 "RtoL" "Small" 54 45 36 "'Choose a square with far fewer than 50 dots'" "s01" 822 "RIGHT" 710 36 "Con3:Quan1:Item4" 36 45 54 TRUE FALSE FALSE "Expected" 148 51.5 0.929122012520409 "s01:t148" 0.75 0.6666667 0.946145 0.8166667 0.89861574 "Vague" 0.5 "Comparison" -0.5 0.5 -0.5 45 1.33592551964224 1.98373338623289e-06 0.00140845070422535 0.0375293312520401 6.56526497003536 26.6458251889485 710 504100 1715 3.39994390092563e-07 0.000583090379008746 0.0241472644208148 -0.228552733017967 7.44716835960004 41.4125584816973 1715 2941225
"149" "06:15:24" 1 "LtoR" "Small" 6 15 24 "'Choose a square with about 10 dots'" "s01" 540 "LEFT" 689 6 "Con1:Quan1:Item1" 6 15 24 TRUE FALSE FALSE "Expected" 149 52.5 0.947163216647019 "s01:t149" -0.75 0.25 -1.3441995 0.5125 -1.37582241 "Vague" 0.5 "Matching" 0.5 -0.5 -0.5 36 -0.315347225666624 2.10650044973785e-06 0.00145137880986938 0.038096965887973 6.53524127101366 26.2488094968134 689 474721 710 1.98373338623289e-06 0.00140845070422535 0.0375293312520401 1.41757272242977 6.56526497003536 26.6458251889485 710 504100
"150" "16:25:34" 1 "LtoR" "Large" 16 25 34 "'Choose a square with about 30 dots'" "s01" 503 "RIGHT" 700 34 "Con1:Quan2:Item2" 34 25 16 TRUE FALSE FALSE "Expected" 150 53.5 0.965204420773629 "s01:t150" -0.25 0.4705882 -0.1316642 0.6876471 -0.06614191 "Vague" 0.5 "Matching" 0.5 -0.5 0.5 36 -0.315347225666624 2.04081632653061e-06 0.00142857142857143 0.0377964473009227 6.5510803350434 26.4575131106459 700 490000 689 2.10650044973785e-06 0.00145137880986938 0.038096965887973 1.48739734932691 6.53524127101366 26.2488094968134 689 474721
"151" "26:35:44" 3 "LtoR" "Large" 26 35 44 "'Choose a square with far more than 30 dots'" "s01" 522 "RIGHT" 943 44 "Con3:Quan2:Item3" 44 35 26 TRUE FALSE FALSE "Expected" 151 54.5 0.983245624900239 "s01:t151" 0.25 0.5909091 0.5297187 0.7691558 0.54334858 "Vague" 0.5 "Comparison" -0.5 -0.5 0.5 44 1.15245077016348 1.12454441894228e-06 0.00106044538706257 0.0325644804512918 6.84906628263346 30.7083050655682 943 889249 700 2.04081632653061e-06 0.00142857142857143 0.0377964473009227 1.45043061599508 6.5510803350434 26.4575131106459 700 490000
"152" "36:45:54" 2 "LtoR" "Small" 36 45 54 "'Choose a square with 36 dots'" "s01" 622 "RIGHT" 702 54 "Con2:Quan1:Item4" 36 45 54 FALSE FALSE TRUE "Far" 152 55.5 1.00128682902685 "s01:t152" 0.75 0.6666667 0.946145 0.8166667 0.89861574 "Crisp" -0.5 "Matching" 0.5 -0.5 -0.5 30 -1.4161957225392 2.02920430840659e-06 0.00142450142450142 0.0377425678048199 6.55393340402581 26.4952825989835 702 492804 943 1.12454441894228e-06 0.00106044538706257 0.0325644804512918 0.806847384655956 6.84906628263346 30.7083050655682 943 889249
"153" "06:15:24" 1 "RtoL" "Small" 24 15 6 "'Choose a square with about 10 dots'" "s01" 611 "RIGHT" 644 6 "Con1:Quan1:Item1" 6 15 24 TRUE FALSE FALSE "Expected" 153 56.5 1.01932803315346 "s01:t153" -0.75 0.25 -1.3441995 0.5125 -1.37582241 "Vague" 0.5 "Matching" 0.5 0.5 -0.5 36 -0.315347225666624 2.4111724084719e-06 0.0015527950310559 0.039405520311955 6.46769872610435 25.377155080899 644 414736 702 2.02920430840659e-06 0.00142450142450142 0.0377425678048199 1.44380290958917 6.55393340402581 26.4952825989835 702 492804
"154" "16:25:34" 3 "LtoR" "Small" 16 25 34 "'Choose a square with far fewer than 30 dots'" "s01" 621 "LEFT" 661 16 "Con3:Quan1:Item2" 16 25 34 TRUE FALSE FALSE "Expected" 154 57.5 1.03736923728007 "s01:t154" -0.25 0.4705882 -0.1316642 0.6876471 -0.06614191 "Vague" 0.5 "Comparison" -0.5 -0.5 -0.5 45 1.33592551964224 2.2887432739557e-06 0.00151285930408472 0.0388954920792207 6.49375383985169 25.7099202643649 661 436921 644 2.4111724084719e-06 0.0015527950310559 0.039405520311955 1.64836237620373 6.46769872610435 25.377155080899 644 414736
"155" "26:35:44" 4 "RtoL" "Large" 44 35 26 "'Choose a square with more than 30 dots'" "s01" 565 "LEFT" 728 44 "Con4:Quan2:Item3" 44 35 26 TRUE FALSE FALSE "Expected" 155 58.5 1.05541044140668 "s01:t155" 0.25 0.5909091 0.5297187 0.7691558 0.54334858 "Crisp" -0.5 "Comparison" -0.5 0.5 0.5 40 0.418551772248428 1.88684941432194e-06 0.00137362637362637 0.0370624658330551 6.59030104819669 26.9814751264641 728 529984 661 2.2887432739557e-06 0.00151285930408472 0.0388954920792207 1.58562390183429 6.49375383985169 25.7099202643649 661 436921
"156" "36:45:54" 4 "RtoL" "Large" 54 45 36 "'Choose a square with more than 40 dots'" "s01" 550 "LEFT" 624 54 "Con4:Quan2:Item4" 54 45 36 TRUE FALSE FALSE "Expected" 156 59.5 1.07345164553329 "s01:t156" 0.75 0.6666667 0.946145 0.8166667 0.89861574 "Crisp" -0.5 "Comparison" -0.5 0.5 0.5 40 0.418551772248428 2.56821170282709e-06 0.0016025641025641 0.0400320384512718 6.43615036836943 24.9799919935936 624 389376 728 1.88684941432194e-06 0.00137362637362637 0.0370624658330551 1.36014369744042 6.59030104819669 26.9814751264641 728 529984
"157" "06:15:24" 3 "LtoR" "Large" 6 15 24 "'Choose a square with far more than 10 dots'" "s01" 505 "RIGHT" 695 24 "Con3:Quan2:Item1" 24 15 6 TRUE FALSE FALSE "Expected" 157 60.5 1.0914928496599 "s01:t157" -0.75 0.25 -1.3441995 0.5125 -1.37582241 "Vague" 0.5 "Comparison" -0.5 -0.5 0.5 44 1.15245077016348 2.07028621706951e-06 0.00143884892086331 0.0379321620905441 6.54391184556479 26.3628526529281 695 483025 624 2.56821170282709e-06 0.0016025641025641 0.0400320384512718 1.72543025147563 6.43615036836943 24.9799919935936 624 389376
"158" "16:25:34" 2 "RtoL" "Small" 34 25 16 "'Choose a square with 16 dots'" "s01" 662 "RIGHT" 805 16 "Con2:Quan1:Item2" 16 25 34 TRUE FALSE FALSE "Expected" 158 61.5 1.10953405378651 "s01:t158" -0.25 0.4705882 -0.1316642 0.6876471 -0.06614191 "Crisp" -0.5 "Matching" 0.5 0.5 -0.5 30 -1.4161957225392 1.54315034142201e-06 0.00124223602484472 0.0352453688425121 6.69084227741856 28.3725219182222 805 648025 695 2.07028621706951e-06 0.00143884892086331 0.0379321620905441 1.46712486604584 6.54391184556479 26.3628526529281 695 483025
"159" "26:35:44" 2 "RtoL" "Small" 44 35 26 "'Choose a square with 26 dots'" "s01" 495 "MIDDLE" 1173 35 "Con2:Quan1:Item3" 26 35 44 FALSE TRUE FALSE "Near" 159 62.5 1.12757525791312 "s01:t159" 0.25 0.5909091 0.5297187 0.7691558 0.54334858 "Crisp" -0.5 "Matching" 0.5 0.5 -0.5 30 -1.4161957225392 7.26781687136473e-07 0.000852514919011083 0.0291978581236892 7.06731984865348 34.2490875790874 1173 1375929 805 1.54315034142201e-06 0.00124223602484472 0.0352453688425121 1.13662294770311 6.69084227741856 28.3725219182222 805 648025
"160" "36:45:54" 2 "RtoL" "Small" 54 45 36 "'Choose a square with 36 dots'" "s01" 387 "LEFT" 714 54 "Con2:Quan1:Item4" 36 45 54 FALSE FALSE TRUE "Far" 160 63.5 1.14561646203973 "s01:t160" 0.75 0.6666667 0.946145 0.8166667 0.89861574 "Crisp" -0.5 "Matching" 0.5 0.5 -0.5 30 -1.4161957225392 1.96156894130201e-06 0.00140056022408964 0.037424059428256 6.57088296233958 26.7207784317748 714 509796 1173 7.26781687136473e-07 0.000852514919011083 0.0291978581236892 0.39271982258056 7.06731984865348 34.2490875790874 1173 1375929
"161" "06:15:24" 2 "RtoL" "Large" 24 15 6 "'Choose a square with 24 dots'" "s01" 584 "LEFT" 1050 24 "Con2:Quan2:Item1" 24 15 6 TRUE FALSE FALSE "Expected" 161 64.5 1.16365766616634 "s01:t161" -0.75 0.25 -1.3441995 0.5125 -1.37582241 "Crisp" -0.5 "Matching" 0.5 0.5 0.5 30 -1.4161957225392 9.0702947845805e-07 0.000952380952380952 0.0308606699924184 6.95654544315157 32.4037034920393 1050 1102500 714 1.96156894130201e-06 0.00140056022408964 0.037424059428256 1.40462325572496 6.57088296233958 26.7207784317748 714 509796
"162" "16:25:34" 3 "LtoR" "Large" 16 25 34 "'Choose a square with far more than 20 dots'" "s01" 597 "RIGHT" 615 34 "Con3:Quan2:Item2" 34 25 16 TRUE FALSE FALSE "Expected" 162 65.5 1.18169887029295 "s01:t162" -0.25 0.4705882 -0.1316642 0.6876471 -0.06614191 "Vague" 0.5 "Comparison" -0.5 -0.5 0.5 44 1.15245077016348 2.64392887831317e-06 0.0016260162601626 0.0403238919272756 6.42162226780652 24.7991935352745 615 378225 1050 9.0702947845805e-07 0.000952380952380952 0.0308606699924184 0.597261989291972 6.95654544315157 32.4037034920393 1050 1102500
"163" "26:35:44" 3 "LtoR" "Small" 26 35 44 "'Choose a square with far fewer than 40 dots'" "s01" 551 "RIGHT" 571 44 "Con3:Quan1:Item3" 26 35 44 FALSE FALSE TRUE "Far" 163 66.5 1.19974007441956 "s01:t163" 0.25 0.5909091 0.5297187 0.7691558 0.54334858 "Vague" 0.5 "Comparison" -0.5 -0.5 -0.5 45 1.33592551964224 3.06709892314157e-06 0.00175131348511384 0.0418486975318687 6.34738920965601 23.895606290697 571 326041 615 2.64392887831317e-06 0.0016260162601626 0.0403238919272756 1.76133109117176 6.42162226780652 24.7991935352745 615 378225
"164" "36:45:54" 4 "LtoR" "Small" 36 45 54 "'Choose a square with fewer than 50 dots'" "s01" 502 "LEFT" 780 36 "Con4:Quan1:Item4" 36 45 54 TRUE FALSE FALSE "Expected" 164 67.5 1.21778127854617 "s01:t164" 0.75 0.6666667 0.946145 0.8166667 0.89861574 "Crisp" -0.5 "Comparison" -0.5 -0.5 -0.5 41 0.602026521727191 1.64365548980934e-06 0.00128205128205128 0.0358057437019716 6.65929391968364 27.9284800875379 780 608400 571 3.06709892314157e-06 0.00175131348511384 0.0418486975318687 1.94889713399508 6.34738920965601 23.895606290697 571 326041
"165" "06:15:24" 4 "LtoR" "Small" 6 15 24 "'Choose a square with fewer than 20 dots'" "s01" 737 "LEFT" 507 6 "Con4:Quan1:Item1" 6 15 24 TRUE FALSE FALSE "Expected" 165 68.5 1.23582248267278 "s01:t165" -0.75 0.25 -1.3441995 0.5125 -1.37582241 "Crisp" -0.5 "Comparison" -0.5 -0.5 -0.5 41 0.602026521727191 3.89030885161973e-06 0.0019723865877712 0.0444115591684328 6.22851100359118 22.5166604983954 507 257049 780 1.64365548980934e-06 0.00128205128205128 0.0358057437019716 1.20555455089889 6.65929391968364 27.9284800875379 780 608400
"166" "16:25:34" 4 "RtoL" "Small" 34 25 16 "'Choose a square with fewer than 30 dots'" "s01" 728 "RIGHT" 686 16 "Con4:Quan1:Item2" 16 25 34 TRUE FALSE FALSE "Expected" 166 69.5 1.25386368679939 "s01:t166" -0.25 0.4705882 -0.1316642 0.6876471 -0.06614191 "Crisp" -0.5 "Comparison" -0.5 0.5 -0.5 41 0.602026521727191 2.12496493807852e-06 0.00145772594752187 0.0381801774160606 6.53087762772588 26.1916017074176 686 470596 507 3.89030885161973e-06 0.0019723865877712 0.0444115591684328 2.26415424875515 6.22851100359118 22.5166604983954 507 257049
"167" "26:35:44" 1 "LtoR" "Small" 26 35 44 "'Choose a square with about 30 dots'" "s01" 757 "RIGHT" 840 44 "Con1:Quan1:Item3" 26 35 44 FALSE FALSE TRUE "Far" 167 70.5 1.271904890926 "s01:t167" 0.25 0.5909091 0.5297187 0.7691558 0.54334858 "Vague" 0.5 "Matching" 0.5 -0.5 -0.5 36 -0.315347225666624 1.4172335600907e-06 0.00119047619047619 0.0345032779671177 6.73340189183736 28.9827534923789 840 705600 686 2.12496493807852e-06 0.00145772594752187 0.0381801774160606 1.49763318332022 6.53087762772588 26.1916017074176 686 470596
"168" "36:45:54" 2 "LtoR" "Large" 36 45 54 "'Choose a square with 54 dots'" "s01" 633 "RIGHT" 706 54 "Con2:Quan2:Item4" 54 45 36 TRUE FALSE FALSE "Expected" 168 71.5 1.28994609505261 "s01:t168" 0.75 0.6666667 0.946145 0.8166667 0.89861574 "Crisp" -0.5 "Matching" 0.5 -0.5 0.5 30 -1.4161957225392 2.00627563017118e-06 0.00141643059490085 0.0376354964747491 6.55961523749324 26.5706605111728 706 498436 840 1.4172335600907e-06 0.00119047619047619 0.0345032779671177 1.04533849249536 6.73340189183736 28.9827534923789 840 705600
"169" "06:15:24" 4 "LtoR" "Large" 6 15 24 "'Choose a square with more than 10 dots'" "s01" 600 "RIGHT" 554 24 "Con4:Quan2:Item1" 24 15 6 TRUE FALSE FALSE "Expected" 169 72.5 1.30798729917922 "s01:t169" -0.75 0.25 -1.3441995 0.5125 -1.37582241 "Crisp" -0.5 "Comparison" -0.5 -0.5 0.5 40 0.418551772248428 3.25822049029702e-06 0.00180505415162455 0.0424859288662087 6.31716468674728 23.5372045918796 554 306916 706 2.00627563017118e-06 0.00141643059490085 0.0376354964747491 1.43063208596372 6.55961523749324 26.5706605111728 706 498436
"170" "16:25:34" 1 "RtoL" "Large" 34 25 16 "'Choose a square with about 30 dots'" "s01" 622 "LEFT" 637 34 "Con1:Quan2:Item2" 34 25 16 TRUE FALSE FALSE "Expected" 170 73.5 1.32602850330583 "s01:t170" -0.25 0.4705882 -0.1316642 0.6876471 -0.06614191 "Vague" 0.5 "Matching" 0.5 0.5 0.5 36 -0.315347225666624 2.46445637788988e-06 0.00156985871271586 0.0396214425875164 6.45676965557216 25.2388589282479 637 405769 554 3.25822049029702e-06 0.00180505415162455 0.0424859288662087 2.02728283731696 6.31716468674728 23.5372045918796 554 306916
"171" "26:35:44" 4 "LtoR" "Small" 26 35 44 "'Choose a square with fewer than 40 dots'" "s01" 623 "LEFT" 647 26 "Con4:Quan1:Item3" 26 35 44 TRUE FALSE FALSE "Expected" 171 74.5 1.34406970743244 "s01:t171" 0.25 0.5909091 0.5297187 0.7691558 0.54334858 "Crisp" -0.5 "Comparison" -0.5 -0.5 -0.5 41 0.602026521727191 2.38886407124548e-06 0.00154559505409583 0.0393140566985376 6.4723462945009 25.4361946839538 647 418609 637 2.46445637788988e-06 0.00156985871271586 0.0396214425875164 1.67492293360361 6.45676965557216 25.2388589282479 637 405769
"172" "36:45:54" 1 "RtoL" "Small" 54 45 36 "'Choose a square with about 40 dots'" "s01" 762 "LEFT" 899 54 "Con1:Quan1:Item4" 36 45 54 FALSE FALSE TRUE "Far" 172 75.5 1.36211091155905 "s01:t172" 0.75 0.6666667 0.946145 0.8166667 0.89861574 "Vague" 0.5 "Matching" 0.5 0.5 -0.5 36 -0.315347225666624 1.2373159647167e-06 0.00111234705228031 0.0333518672982535 6.80128303447162 29.9833287011299 899 808201 647 2.38886407124548e-06 0.00154559505409583 0.0393140566985376 1.63711145478834 6.4723462945009 25.4361946839538 647 418609
"173" "06:15:24" 4 "RtoL" "Large" 24 15 6 "'Choose a square with more than 10 dots'" "s01" 554 "LEFT" 806 24 "Con4:Quan2:Item1" 24 15 6 TRUE FALSE FALSE "Expected" 173 76.5 1.38015211568566 "s01:t173" -0.75 0.25 -1.3441995 0.5125 -1.37582241 "Crisp" -0.5 "Comparison" -0.5 0.5 0.5 40 0.418551772248428 1.53932355965495e-06 0.00124069478908189 0.0352234976838173 6.69208374250663 28.3901391331568 806 649636 899 1.2373159647167e-06 0.00111234705228031 0.0333518672982535 0.903703688574871 6.80128303447162 29.9833287011299 899 808201
"174" "16:25:34" 3 "RtoL" "Large" 34 25 16 "'Choose a square with far more than 20 dots'" "s01" 680 "LEFT" 734 34 "Con3:Quan2:Item2" 34 25 16 TRUE FALSE FALSE "Expected" 174 77.5 1.39819331981227 "s01:t174" -0.25 0.4705882 -0.1316642 0.6876471 -0.06614191 "Vague" 0.5 "Comparison" -0.5 0.5 0.5 44 1.15245077016348 1.85612782038622e-06 0.00136239782016349 0.0369106735262781 6.59850902861452 27.0924343682881 734 538756 806 1.53932355965495e-06 0.00124069478908189 0.0352234976838173 1.13393258069766 6.69208374250663 28.3901391331568 806 649636
"175" "26:35:44" 4 "RtoL" "Small" 44 35 26 "'Choose a square with fewer than 40 dots'" "s01" 844 "RIGHT" 589 26 "Con4:Quan1:Item3" 26 35 44 TRUE FALSE FALSE "Expected" 175 78.5 1.41623452393888 "s01:t175" 0.25 0.5909091 0.5297187 0.7691558 0.54334858 "Crisp" -0.5 "Comparison" -0.5 0.5 -0.5 41 0.602026521727191 2.88250062694389e-06 0.00169779286926995 0.0412042821715165 6.37842618365159 24.2693221990232 589 346921 734 1.85612782038622e-06 0.00136239782016349 0.0369106735262781 1.34147175511059 6.59850902861452 27.0924343682881 734 538756
"176" "36:45:54" 4 "RtoL" "Small" 54 45 36 "'Choose a square with fewer than 50 dots'" "s01" 808 "RIGHT" 1032 36 "Con4:Quan1:Item4" 36 45 54 TRUE FALSE FALSE "Expected" 176 79.5 1.43427572806549 "s01:t176" 0.75 0.6666667 0.946145 0.8166667 0.89861574 "Crisp" -0.5 "Comparison" -0.5 0.5 -0.5 41 0.602026521727191 9.38945976804279e-07 0.000968992248062015 0.0311286403182345 6.93925394604151 32.124756808418 1032 1065024 589 2.88250062694389e-06 0.00169779286926995 0.0412042821715165 1.86962772502141 6.37842618365159 24.2693221990232 589 346921
"177" "06:15:24" 3 "RtoL" "Large" 24 15 6 "'Choose a square with far more than 10 dots'" "s01" 778 "LEFT" 574 24 "Con3:Quan2:Item1" 24 15 6 TRUE FALSE FALSE "Expected" 177 80.5 1.4523169321921 "s01:t177" -0.75 0.25 -1.3441995 0.5125 -1.37582241 "Vague" 0.5 "Comparison" -0.5 0.5 0.5 44 1.15245077016348 3.0351224368391e-06 0.00174216027874564 0.0417391935564841 6.35262939631957 23.9582971014219 574 329476 1032 9.38945976804279e-07 0.000968992248062015 0.0311286403182345 0.630224967297827 6.93925394604151 32.124756808418 1032 1065024
"178" "16:25:34" 2 "LtoR" "Large" 16 25 34 "'Choose a square with 34 dots'" "s01" 601 "RIGHT" 610 34 "Con2:Quan2:Item2" 34 25 16 TRUE FALSE FALSE "Expected" 178 81.5 1.47035813631871 "s01:t178" -0.25 0.4705882 -0.1316642 0.6876471 -0.06614191 "Crisp" -0.5 "Matching" 0.5 -0.5 0.5 30 -1.4161957225392 2.68744961031981e-06 0.00163934426229508 0.0404888165089458 6.41345895716736 24.6981780704569 610 372100 574 3.0351224368391e-06 0.00174216027874564 0.0417391935564841 1.93542707113957 6.35262939631957 23.9582971014219 574 329476
"179" "26:35:44" 3 "RtoL" "Large" 44 35 26 "'Choose a square with far more than 30 dots'" "s01" 811 "LEFT" 670 44 "Con3:Quan2:Item3" 44 35 26 TRUE FALSE FALSE "Expected" 179 82.5 1.48839934044532 "s01:t179" 0.25 0.5909091 0.5297187 0.7691558 0.54334858 "Vague" 0.5 "Comparison" -0.5 0.5 0.5 44 1.15245077016348 2.22766763198931e-06 0.00149253731343284 0.0386333704643128 6.50727771238501 25.8843582110896 670 448900 610 2.68744961031981e-06 0.00163934426229508 0.0404888165089458 1.78161843209902 6.41345895716736 24.6981780704569 610 372100
"180" "36:45:54" 1 "LtoR" "Small" 36 45 54 "'Choose a square with about 40 dots'" "s01" 628 "RIGHT" 645 54 "Con1:Quan1:Item4" 36 45 54 FALSE FALSE TRUE "Far" 180 83.5 1.50644054457193 "s01:t180" 0.75 0.6666667 0.946145 0.8166667 0.89861574 "Vague" 0.5 "Matching" 0.5 -0.5 -0.5 36 -0.315347225666624 2.40370170061895e-06 0.00155038759689922 0.0393749615479079 6.46925031679577 25.3968501984006 645 416025 670 2.22766763198931e-06 0.00149253731343284 0.0386333704643128 1.55338037262726 6.50727771238501 25.8843582110896 670 448900
"181" "06:15:24" 3 "RtoL" "Small" 24 15 6 "'Choose a square with far fewer than 20 dots'" "s01" 542 "RIGHT" 601 6 "Con3:Quan1:Item1" 6 15 24 TRUE FALSE FALSE "Expected" 181 84.5 1.52448174869854 "s01:t181" -0.75 0.25 -1.3441995 0.5125 -1.37582241 "Vague" 0.5 "Comparison" -0.5 0.5 -0.5 45 1.33592551964224 2.76854161533329e-06 0.00166389351081531 0.0407908508224002 6.39859493453521 24.5153013442625 601 361201 645 2.40370170061895e-06 0.00155038759689922 0.0393749615479079 1.64460334854235 6.46925031679577 25.3968501984006 645 416025
"182" "16:25:34" 4 "LtoR" "Large" 16 25 34 "'Choose a square with more than 20 dots'" "s01" 651 "RIGHT" 938 34 "Con4:Quan2:Item2" 34 25 16 TRUE FALSE FALSE "Expected" 182 85.5 1.54252295282514 "s01:t182" -0.25 0.4705882 -0.1316642 0.6876471 -0.06614191 "Crisp" -0.5 "Comparison" -0.5 -0.5 0.5 40 0.418551772248428 1.13656511836189e-06 0.00106609808102345 0.032651157422417 6.84374994900622 30.6267856622271 938 879844 601 2.76854161533329e-06 0.00166389351081531 0.0407908508224002 1.81877161464298 6.39859493453521 24.5153013442625 601 361201
"183" "26:35:44" 3 "RtoL" "Small" 44 35 26 "'Choose a square with far fewer than 40 dots'" "s01" 776 "RIGHT" 724 26 "Con3:Quan1:Item3" 26 35 44 TRUE FALSE FALSE "Expected" 183 86.5 1.56056415695175 "s01:t183" 0.25 0.5909091 0.5297187 0.7691558 0.54334858 "Vague" 0.5 "Comparison" -0.5 0.5 -0.5 45 1.33592551964224 1.90775617349898e-06 0.00138121546961326 0.0371647073123583 6.58479139238572 26.9072480941474 724 524176 938 1.13656511836189e-06 0.00106609808102345 0.032651157422417 0.817509502127773 6.84374994900622 30.6267856622271 938 879844
"184" "36:45:54" 4 "LtoR" "Large" 36 45 54 "'Choose a square with more than 40 dots'" "s01" 745 "RIGHT" 493 54 "Con4:Quan2:Item4" 54 45 36 TRUE FALSE FALSE "Expected" 184 87.5 1.57860536107836 "s01:t184" 0.75 0.6666667 0.946145 0.8166667 0.89861574 "Crisp" -0.5 "Comparison" -0.5 -0.5 0.5 40 0.418551772248428 4.11439668544203e-06 0.00202839756592292 0.0450377349111045 6.20050917404269 22.2036033111745 493 243049 724 1.90775617349898e-06 0.00138121546961326 0.0371647073123583 1.37272040205611 6.58479139238572 26.9072480941474 724 524176
"185" "06:15:24" 1 "RtoL" "Large" 24 15 6 "'Choose a square with about 20 dots'" "s01" 739 "LEFT" 671 24 "Con1:Quan2:Item1" 24 15 6 TRUE FALSE FALSE "Expected" 185 88.5 1.59664656520497 "s01:t185" -0.75 0.25 -1.3441995 0.5125 -1.37582241 "Vague" 0.5 "Matching" 0.5 0.5 0.5 36 -0.315347225666624 2.22103273580149e-06 0.0014903129657228 0.0386045718241091 6.50876913697168 25.9036676939772 671 450241 493 4.11439668544203e-06 0.00202839756592292 0.0450377349111045 2.3411800058819 6.20050917404269 22.2036033111745 493 243049
