"Subject" "Trial" "Condition" "Left" "Mid" "Right" "discriminability" "Exp_side" "Bline_side" "Extr_side" "response_side" "Instruction" "Vagueness" "c_Vag" "Number" "c_Num" "Order" "c_Ord" "Quantity" "c_Qty" "Item" "c_Itm" "response_category" "RT" "RT_log" "isBorderline"
"1" "s01" 1 2 24 15 6 0.4875 "right" "mid" "left" "right" "Choose the square with 6 dots" "Crisp" -0.5 "Numeric" -0.5 "RtoL" 0.5 "Small" -0.5 "06:15:24" -0.75 "expected" 1517 7.32448997934853 FALSE
"2" "s01" 2 1 16 25 34 0.3123529 "right" "mid" "left" "mid" "Choose a square with about 30 dots" "Vague" 0.5 "Numeric" -0.5 "LtoR" -0.5 "Large" 0.5 "16:25:34" -0.25 "borderline" 1920 7.56008046502183 TRUE
"3" "s01" 3 4 26 35 44 0.2308442 "left" "mid" "right" "left" "Choose the square with the fewest dots" "Crisp" -0.5 "Verbal" 0.5 "LtoR" -0.5 "Small" -0.5 "26:35:44" 0.25 "expected" 2346 7.76046702921342 FALSE
"4" "s01" 4 1 54 45 36 0.1833333 "left" "mid" "right" "mid" "Choose a square with about 50 dots" "Vague" 0.5 "Numeric" -0.5 "RtoL" 0.5 "Large" 0.5 "36:45:54" 0.75 "borderline" 1773 7.48042830607421 TRUE
"5" "s01" 5 1 24 15 6 0.4875 "right" "mid" "left" "right" "Choose a square with about 10 dots" "Vague" 0.5 "Numeric" -0.5 "RtoL" 0.5 "Small" -0.5 "06:15:24" -0.75 "expected" 2556 7.84619881549743 FALSE
"6" "s01" 6 3 16 25 34 0.3123529 "right" "mid" "left" "right" "Choose a square with many dots" "Vague" 0.5 "Verbal" 0.5 "LtoR" -0.5 "Large" 0.5 "16:25:34" -0.25 "expected" 2043 7.62217459481762 FALSE
"7" "s01" 7 3 44 35 26 0.2308442 "right" "mid" "left" "right" "Choose a square with few dots" "Vague" 0.5 "Verbal" 0.5 "RtoL" 0.5 "Small" -0.5 "26:35:44" 0.25 "expected" 2384 7.77653502818524 FALSE
"8" "s01" 8 4 54 45 36 0.1833333 "right" "mid" "left" "right" "Choose the square with the fewest dots" "Crisp" -0.5 "Verbal" 0.5 "RtoL" 0.5 "Small" -0.5 "36:45:54" 0.75 "expected" 3078 8.03203531439882 FALSE
"9" "s01" 9 4 6 15 24 0.4875 "right" "mid" "left" "right" "Choose the square with the most dots" "Crisp" -0.5 "Verbal" 0.5 "LtoR" -0.5 "Large" 0.5 "06:15:24" -0.75 "expected" 1760 7.4730690880322 FALSE
"10" "s01" 10 2 34 25 16 0.3123529 "left" "mid" "right" "mid" "Choose the square with 34 dots" "Crisp" -0.5 "Numeric" -0.5 "RtoL" 0.5 "Large" 0.5 "16:25:34" -0.25 "borderline" 2218 7.70436116791031 TRUE
"11" "s01" 11 1 44 35 26 0.2308442 "right" "mid" "left" "right" "Choose a square with about 30 dots" "Vague" 0.5 "Numeric" -0.5 "RtoL" 0.5 "Small" -0.5 "26:35:44" 0.25 "expected" 7986 8.98544528762317 FALSE
"12" "s01" 12 3 54 45 36 0.1833333 "left" "mid" "right" "left" "Choose a square with many dots" "Vague" 0.5 "Verbal" 0.5 "RtoL" 0.5 "Large" 0.5 "36:45:54" 0.75 "expected" 1262 7.14045304310116 FALSE
"13" "s01" 13 1 6 15 24 0.4875 "right" "mid" "left" "mid" "Choose a square with about 20 dots" "Vague" 0.5 "Numeric" -0.5 "LtoR" -0.5 "Large" 0.5 "06:15:24" -0.75 "borderline" 1390 7.23705902612474 TRUE
"14" "s01" 14 4 34 25 16 0.3123529 "right" "mid" "left" "right" "Choose the square with the fewest dots" "Crisp" -0.5 "Verbal" 0.5 "RtoL" 0.5 "Small" -0.5 "16:25:34" -0.25 "expected" 2067 7.63385355968177 FALSE
"15" "s01" 15 2 26 35 44 0.2308442 "right" "mid" "left" "right" "Choose the square with 44 dots" "Crisp" -0.5 "Numeric" -0.5 "LtoR" -0.5 "Large" 0.5 "26:35:44" 0.25 "expected" 3582 8.18367658262066 FALSE
"16" "s01" 16 2 36 45 54 0.1833333 "right" "mid" "left" "mid" "Choose the square with 54 dots" "Crisp" -0.5 "Numeric" -0.5 "LtoR" -0.5 "Large" 0.5 "36:45:54" 0.75 "borderline" 1982 7.59186171488993 TRUE
"17" "s01" 17 3 6 15 24 0.4875 "left" "mid" "right" "left" "Choose a square with few dots" "Vague" 0.5 "Verbal" 0.5 "LtoR" -0.5 "Small" -0.5 "06:15:24" -0.75 "expected" 1036 6.94312242281943 FALSE
"18" "s01" 18 3 34 25 16 0.3123529 "right" "mid" "left" "right" "Choose a square with few dots" "Vague" 0.5 "Verbal" 0.5 "RtoL" 0.5 "Small" -0.5 "16:25:34" -0.25 "expected" 1357 7.21303165983487 FALSE
"19" "s01" 19 1 26 35 44 0.2308442 "left" "mid" "right" "mid" "Choose a square with about 30 dots" "Vague" 0.5 "Numeric" -0.5 "LtoR" -0.5 "Small" -0.5 "26:35:44" 0.25 "borderline" 2121 7.65964295456468 TRUE
"20" "s01" 20 1 54 45 36 0.1833333 "right" "mid" "left" "mid" "Choose a square with about 40 dots" "Vague" 0.5 "Numeric" -0.5 "RtoL" 0.5 "Small" -0.5 "36:45:54" 0.75 "borderline" 2104 7.6515955738576 TRUE
"21" "s01" 21 4 24 15 6 0.4875 "right" "mid" "left" "right" "Choose the square with the fewest dots" "Crisp" -0.5 "Verbal" 0.5 "RtoL" 0.5 "Small" -0.5 "06:15:24" -0.75 "expected" 782 6.66185474054531 FALSE
"22" "s01" 22 1 16 25 34 0.3123529 "left" "mid" "right" "mid" "Choose a square with about 20 dots" "Vague" 0.5 "Numeric" -0.5 "LtoR" -0.5 "Small" -0.5 "16:25:34" -0.25 "borderline" 1743 7.46336304552002 TRUE
"23" "s01" 23 4 26 35 44 0.2308442 "right" "mid" "left" "right" "Choose the square with the most dots" "Crisp" -0.5 "Verbal" 0.5 "LtoR" -0.5 "Large" 0.5 "26:35:44" 0.25 "expected" 997 6.90475076996184 FALSE
"24" "s01" 24 3 36 45 54 0.1833333 "left" "mid" "right" "left" "Choose a square with few dots" "Vague" 0.5 "Verbal" 0.5 "LtoR" -0.5 "Small" -0.5 "36:45:54" 0.75 "expected" 2274 7.72929567431048 FALSE
"25" "s01" 25 2 6 15 24 0.4875 "left" "mid" "right" "left" "Choose the square with 6 dots" "Crisp" -0.5 "Numeric" -0.5 "LtoR" -0.5 "Small" -0.5 "06:15:24" -0.75 "expected" 830 6.72142570079064 FALSE
"26" "s01" 26 1 34 25 16 0.3123529 "right" "mid" "left" "mid" "Choose a square with about 20 dots" "Vague" 0.5 "Numeric" -0.5 "RtoL" 0.5 "Small" -0.5 "16:25:34" -0.25 "borderline" 1799 7.49498623395053 TRUE
"27" "s01" 27 4 44 35 26 0.2308442 "left" "mid" "right" "left" "Choose the square with the most dots" "Crisp" -0.5 "Verbal" 0.5 "RtoL" 0.5 "Large" 0.5 "26:35:44" 0.25 "expected" 2057 7.62900388965296 FALSE
"28" "s01" 28 2 36 45 54 0.1833333 "left" "mid" "right" "left" "Choose the square with 36 dots" "Crisp" -0.5 "Numeric" -0.5 "LtoR" -0.5 "Small" -0.5 "36:45:54" 0.75 "expected" 1350 7.20785987143248 FALSE
"29" "s01" 29 2 6 15 24 0.4875 "right" "mid" "left" "right" "Choose the square with 24 dots" "Crisp" -0.5 "Numeric" -0.5 "LtoR" -0.5 "Large" 0.5 "06:15:24" -0.75 "expected" 3042 8.02027047281924 FALSE
"30" "s01" 30 4 16 25 34 0.3123529 "right" "mid" "left" "right" "Choose the square with the most dots" "Crisp" -0.5 "Verbal" 0.5 "LtoR" -0.5 "Large" 0.5 "16:25:34" -0.25 "expected" 1240 7.12286665859908 FALSE
"31" "s01" 31 2 26 35 44 0.2308442 "left" "mid" "right" "mid" "Choose the square with 26 dots" "Crisp" -0.5 "Numeric" -0.5 "LtoR" -0.5 "Small" -0.5 "26:35:44" 0.25 "borderline" 2356 7.76472054477148 TRUE
"32" "s01" 32 3 54 45 36 0.1833333 "right" "mid" "left" "right" "Choose a square with few dots" "Vague" 0.5 "Verbal" 0.5 "RtoL" 0.5 "Small" -0.5 "36:45:54" 0.75 "expected" 3740 8.22684089040858 FALSE
"33" "s01" 33 2 24 15 6 0.4875 "left" "mid" "right" "left" "Choose the square with 24 dots" "Crisp" -0.5 "Numeric" -0.5 "RtoL" 0.5 "Large" 0.5 "06:15:24" -0.75 "expected" 1689 7.4318919168078 FALSE
"34" "s01" 34 2 16 25 34 0.3123529 "right" "mid" "left" "right" "Choose the square with 34 dots" "Crisp" -0.5 "Numeric" -0.5 "LtoR" -0.5 "Large" 0.5 "16:25:34" -0.25 "expected" 4676 8.45019832259196 FALSE
"35" "s01" 35 2 44 35 26 0.2308442 "left" "mid" "right" "mid" "Choose the square with 44 dots" "Crisp" -0.5 "Numeric" -0.5 "RtoL" 0.5 "Large" 0.5 "26:35:44" 0.25 "borderline" 2900 7.97246601597457 TRUE
"36" "s01" 36 3 36 45 54 0.1833333 "right" "mid" "left" "right" "Choose a square with many dots" "Vague" 0.5 "Verbal" 0.5 "LtoR" -0.5 "Large" 0.5 "36:45:54" 0.75 "expected" 844 6.73815249459596 FALSE
"37" "s01" 37 3 24 15 6 0.4875 "right" "mid" "left" "left" "Choose a square with few dots" "Vague" 0.5 "Verbal" 0.5 "RtoL" 0.5 "Small" -0.5 "06:15:24" -0.75 "extreme" 1007 6.91473089271856 FALSE
"38" "s01" 38 4 16 25 34 0.3123529 "left" "mid" "right" "left" "Choose the square with the fewest dots" "Crisp" -0.5 "Verbal" 0.5 "LtoR" -0.5 "Small" -0.5 "16:25:34" -0.25 "expected" 1085 6.98933526597456 FALSE
"39" "s01" 39 1 44 35 26 0.2308442 "left" "mid" "right" "left" "Choose a square with about 40 dots" "Vague" 0.5 "Numeric" -0.5 "RtoL" 0.5 "Large" 0.5 "26:35:44" 0.25 "expected" 2229 7.70930833338587 FALSE
"40" "s01" 40 4 54 45 36 0.1833333 "left" "mid" "right" "left" "Choose the square with the most dots" "Crisp" -0.5 "Verbal" 0.5 "RtoL" 0.5 "Large" 0.5 "36:45:54" 0.75 "expected" 2299 7.74022952476318 FALSE
"41" "s01" 41 1 6 15 24 0.4875 "left" "mid" "right" "mid" "Choose a square with about 10 dots" "Vague" 0.5 "Numeric" -0.5 "LtoR" -0.5 "Small" -0.5 "06:15:24" -0.75 "borderline" 2873 7.96311205897929 TRUE
"42" "s01" 42 3 16 25 34 0.3123529 "left" "mid" "right" "left" "Choose a square with few dots" "Vague" 0.5 "Verbal" 0.5 "LtoR" -0.5 "Small" -0.5 "16:25:34" -0.25 "expected" 2683 7.89469085042562 FALSE
"43" "s01" 43 3 26 35 44 0.2308442 "left" "mid" "right" "left" "Choose a square with few dots" "Vague" 0.5 "Verbal" 0.5 "LtoR" -0.5 "Small" -0.5 "26:35:44" 0.25 "expected" 1323 7.18765716411496 FALSE
"44" "s01" 44 1 36 45 54 0.1833333 "right" "mid" "left" "right" "Choose a square with about 50 dots" "Vague" 0.5 "Numeric" -0.5 "LtoR" -0.5 "Large" 0.5 "36:45:54" 0.75 "expected" 2298 7.7397944584087 FALSE
"45" "s01" 45 1 24 15 6 0.4875 "left" "mid" "right" "left" "Choose a square with about 20 dots" "Vague" 0.5 "Numeric" -0.5 "RtoL" 0.5 "Large" 0.5 "06:15:24" -0.75 "expected" 2259 7.722677516468 FALSE
"46" "s01" 46 1 34 25 16 0.3123529 "left" "mid" "right" "left" "Choose a square with about 30 dots" "Vague" 0.5 "Numeric" -0.5 "RtoL" 0.5 "Large" 0.5 "16:25:34" -0.25 "expected" 1944 7.57250298502038 FALSE
"47" "s01" 47 4 44 35 26 0.2308442 "right" "mid" "left" "right" "Choose the square with the fewest dots" "Crisp" -0.5 "Verbal" 0.5 "RtoL" 0.5 "Small" -0.5 "26:35:44" 0.25 "expected" 1916 7.55799495853081 FALSE
"48" "s01" 48 2 54 45 36 0.1833333 "right" "mid" "left" "mid" "Choose the square with 36 dots" "Crisp" -0.5 "Numeric" -0.5 "RtoL" 0.5 "Small" -0.5 "36:45:54" 0.75 "borderline" 3192 8.0684029585697 TRUE
"49" "s01" 49 4 6 15 24 0.4875 "left" "mid" "right" "left" "Choose the square with the fewest dots" "Crisp" -0.5 "Verbal" 0.5 "LtoR" -0.5 "Small" -0.5 "06:15:24" -0.75 "expected" 945 6.85118492749374 FALSE
"50" "s01" 50 4 34 25 16 0.3123529 "left" "mid" "right" "left" "Choose the square with the most dots" "Crisp" -0.5 "Verbal" 0.5 "RtoL" 0.5 "Large" 0.5 "16:25:34" -0.25 "expected" 1315 7.18159194461187 FALSE
"51" "s01" 51 3 26 35 44 0.2308442 "right" "mid" "left" "right" "Choose a square with many dots" "Vague" 0.5 "Verbal" 0.5 "LtoR" -0.5 "Large" 0.5 "26:35:44" 0.25 "expected" 3253 8.08733292647335 FALSE
"52" "s01" 52 1 36 45 54 0.1833333 "left" "mid" "right" "right" "Choose a square with about 40 dots" "Vague" 0.5 "Numeric" -0.5 "LtoR" -0.5 "Small" -0.5 "36:45:54" 0.75 "extreme" 3155 8.05674377497531 FALSE
"53" "s01" 53 3 6 15 24 0.4875 "right" "mid" "left" "right" "Choose a square with many dots" "Vague" 0.5 "Verbal" 0.5 "LtoR" -0.5 "Large" 0.5 "06:15:24" -0.75 "expected" 704 6.55677835615804 FALSE
"54" "s01" 54 2 34 25 16 0.3123529 "right" "mid" "left" "mid" "Choose the square with 16 dots" "Crisp" -0.5 "Numeric" -0.5 "RtoL" 0.5 "Small" -0.5 "16:25:34" -0.25 "borderline" 1942 7.57147364885127 TRUE
"55" "s01" 55 2 44 35 26 0.2308442 "right" "mid" "left" "mid" "Choose the square with 26 dots" "Crisp" -0.5 "Numeric" -0.5 "RtoL" 0.5 "Small" -0.5 "26:35:44" 0.25 "borderline" 3566 8.17919979842309 TRUE
"56" "s01" 56 2 54 45 36 0.1833333 "left" "mid" "right" "left" "Choose the square with 54 dots" "Crisp" -0.5 "Numeric" -0.5 "RtoL" 0.5 "Large" 0.5 "36:45:54" 0.75 "expected" 1754 7.46965417293213 FALSE
"57" "s01" 57 4 24 15 6 0.4875 "left" "mid" "right" "left" "Choose the square with the most dots" "Crisp" -0.5 "Verbal" 0.5 "RtoL" 0.5 "Large" 0.5 "06:15:24" -0.75 "expected" 933 6.83840520084734 FALSE
"58" "s01" 58 2 16 25 34 0.3123529 "left" "mid" "right" "left" "Choose the square with 16 dots" "Crisp" -0.5 "Numeric" -0.5 "LtoR" -0.5 "Small" -0.5 "16:25:34" -0.25 "expected" 8155 9.00638651505511 FALSE
"59" "s01" 59 3 44 35 26 0.2308442 "left" "mid" "right" "left" "Choose a square with many dots" "Vague" 0.5 "Verbal" 0.5 "RtoL" 0.5 "Large" 0.5 "26:35:44" 0.25 "expected" 2022 7.61184239958042 FALSE
"60" "s01" 60 4 36 45 54 0.1833333 "right" "mid" "left" "right" "Choose the square with the most dots" "Crisp" -0.5 "Verbal" 0.5 "LtoR" -0.5 "Large" 0.5 "36:45:54" 0.75 "expected" 1029 6.93634273583405 FALSE
"61" "s01" 61 3 24 15 6 0.4875 "left" "mid" "right" "left" "Choose a square with many dots" "Vague" 0.5 "Verbal" 0.5 "RtoL" 0.5 "Large" 0.5 "06:15:24" -0.75 "expected" 1046 6.95272864462487 FALSE
"62" "s01" 62 3 34 25 16 0.3123529 "left" "mid" "right" "left" "Choose a square with many dots" "Vague" 0.5 "Verbal" 0.5 "RtoL" 0.5 "Large" 0.5 "16:25:34" -0.25 "expected" 1203 7.09257371597468 FALSE
"63" "s01" 63 1 26 35 44 0.2308442 "right" "mid" "left" "right" "Choose a square with about 40 dots" "Vague" 0.5 "Numeric" -0.5 "LtoR" -0.5 "Large" 0.5 "26:35:44" 0.25 "expected" 1313 7.1800698743028 FALSE
"64" "s01" 64 4 36 45 54 0.1833333 "left" "mid" "right" "left" "Choose the square with the fewest dots" "Crisp" -0.5 "Verbal" 0.5 "LtoR" -0.5 "Small" -0.5 "36:45:54" 0.75 "expected" 1019 6.92657703322272 FALSE
"65" "s01" 65 1 24 15 6 0.4875 "right" "mid" "left" "mid" "Choose a square with about 10 dots" "Vague" 0.5 "Numeric" -0.5 "RtoL" 0.5 "Small" -0.5 "06:15:24" -0.75 "borderline" 1452 7.28069719538474 TRUE
"66" "s01" 66 1 34 25 16 0.3123529 "left" "mid" "right" "left" "Choose a square with about 30 dots" "Vague" 0.5 "Numeric" -0.5 "RtoL" 0.5 "Large" 0.5 "16:25:34" -0.25 "expected" 1544 7.34213173058472 FALSE
"67" "s01" 67 3 26 35 44 0.2308442 "right" "mid" "left" "right" "Choose a square with many dots" "Vague" 0.5 "Verbal" 0.5 "LtoR" -0.5 "Large" 0.5 "26:35:44" 0.25 "expected" 874 6.77308037565554 FALSE
"68" "s01" 68 1 54 45 36 0.1833333 "right" "mid" "left" "left" "Choose a square with about 40 dots" "Vague" 0.5 "Numeric" -0.5 "RtoL" 0.5 "Small" -0.5 "36:45:54" 0.75 "extreme" 3235 8.081784206935 FALSE
"69" "s01" 69 1 6 15 24 0.4875 "right" "mid" "left" "mid" "Choose a square with about 20 dots" "Vague" 0.5 "Numeric" -0.5 "LtoR" -0.5 "Large" 0.5 "06:15:24" -0.75 "borderline" 2743 7.9168074909376 TRUE
"70" "s01" 70 2 34 25 16 0.3123529 "left" "mid" "right" "left" "Choose the square with 34 dots" "Crisp" -0.5 "Numeric" -0.5 "RtoL" 0.5 "Large" 0.5 "16:25:34" -0.25 "expected" 1494 7.30921236569276 FALSE
"71" "s01" 71 4 26 35 44 0.2308442 "right" "mid" "left" "right" "Choose the square with the most dots" "Crisp" -0.5 "Verbal" 0.5 "LtoR" -0.5 "Large" 0.5 "26:35:44" 0.25 "expected" 834 6.72623340235875 FALSE
"72" "s01" 72 3 36 45 54 0.1833333 "right" "mid" "left" "right" "Choose a square with many dots" "Vague" 0.5 "Verbal" 0.5 "LtoR" -0.5 "Large" 0.5 "36:45:54" 0.75 "expected" 1349 7.20711885620776 FALSE
"73" "s01" 73 3 24 15 6 0.4875 "right" "mid" "left" "left" "Choose a square with few dots" "Vague" 0.5 "Verbal" 0.5 "RtoL" 0.5 "Small" -0.5 "06:15:24" -0.75 "extreme" 717 6.57507584059962 FALSE
"74" "s01" 74 3 16 25 34 0.3123529 "right" "mid" "left" "right" "Choose a square with many dots" "Vague" 0.5 "Verbal" 0.5 "LtoR" -0.5 "Large" 0.5 "16:25:34" -0.25 "expected" 1648 7.40731771046942 FALSE
"75" "s01" 75 1 44 35 26 0.2308442 "right" "mid" "left" "left" "Choose a square with about 30 dots" "Vague" 0.5 "Numeric" -0.5 "RtoL" 0.5 "Small" -0.5 "26:35:44" 0.25 "extreme" 940 6.84587987526405 FALSE
"76" "s01" 76 2 36 45 54 0.1833333 "left" "mid" "right" "right" "Choose the square with 36 dots" "Crisp" -0.5 "Numeric" -0.5 "LtoR" -0.5 "Small" -0.5 "36:45:54" 0.75 "extreme" 2787 7.93272102748195 FALSE
"77" "s01" 77 4 24 15 6 0.4875 "left" "mid" "right" "left" "Choose the square with the most dots" "Crisp" -0.5 "Verbal" 0.5 "RtoL" 0.5 "Large" 0.5 "06:15:24" -0.75 "expected" 880 6.77992190747225 FALSE
"78" "s01" 78 2 34 25 16 0.3123529 "right" "mid" "left" "mid" "Choose the square with 16 dots" "Crisp" -0.5 "Numeric" -0.5 "RtoL" 0.5 "Small" -0.5 "16:25:34" -0.25 "borderline" 1795 7.49276030092238 TRUE
"79" "s01" 79 2 26 35 44 0.2308442 "left" "mid" "right" "mid" "Choose the square with 26 dots" "Crisp" -0.5 "Numeric" -0.5 "LtoR" -0.5 "Small" -0.5 "26:35:44" 0.25 "borderline" 1844 7.51969240411654 TRUE
"80" "s01" 80 3 36 45 54 0.1833333 "left" "mid" "right" "left" "Choose a square with few dots" "Vague" 0.5 "Verbal" 0.5 "LtoR" -0.5 "Small" -0.5 "36:45:54" 0.75 "expected" 1548 7.34471905414967 FALSE
"81" "s01" 81 2 6 15 24 0.4875 "right" "mid" "left" "right" "Choose the square with 24 dots" "Crisp" -0.5 "Numeric" -0.5 "LtoR" -0.5 "Large" 0.5 "06:15:24" -0.75 "expected" 1902 7.55066124310534 FALSE
"82" "s01" 82 4 16 25 34 0.3123529 "left" "mid" "right" "left" "Choose the square with the fewest dots" "Crisp" -0.5 "Verbal" 0.5 "LtoR" -0.5 "Small" -0.5 "16:25:34" -0.25 "expected" 919 6.82328612235569 FALSE
"83" "s01" 83 4 44 35 26 0.2308442 "left" "mid" "right" "left" "Choose the square with the most dots" "Crisp" -0.5 "Verbal" 0.5 "RtoL" 0.5 "Large" 0.5 "26:35:44" 0.25 "expected" 798 6.68210859744981 FALSE
"84" "s01" 84 3 54 45 36 0.1833333 "right" "mid" "left" "right" "Choose a square with few dots" "Vague" 0.5 "Verbal" 0.5 "RtoL" 0.5 "Small" -0.5 "36:45:54" 0.75 "expected" 2193 7.69302574841789 FALSE
"85" "s01" 85 2 24 15 6 0.4875 "right" "mid" "left" "right" "Choose the square with 6 dots" "Crisp" -0.5 "Numeric" -0.5 "RtoL" 0.5 "Small" -0.5 "06:15:24" -0.75 "expected" 1293 7.16472037877186 FALSE
"86" "s01" 86 3 34 25 16 0.3123529 "right" "mid" "left" "right" "Choose a square with few dots" "Vague" 0.5 "Verbal" 0.5 "RtoL" 0.5 "Small" -0.5 "16:25:34" -0.25 "expected" 1420 7.25841215059531 FALSE
"87" "s01" 87 1 26 35 44 0.2308442 "left" "mid" "right" "mid" "Choose a square with about 30 dots" "Vague" 0.5 "Numeric" -0.5 "LtoR" -0.5 "Small" -0.5 "26:35:44" 0.25 "borderline" 2219 7.70481192293259 TRUE
"88" "s01" 88 2 54 45 36 0.1833333 "left" "mid" "right" "left" "Choose the square with 54 dots" "Crisp" -0.5 "Numeric" -0.5 "RtoL" 0.5 "Large" 0.5 "36:45:54" 0.75 "expected" 913 6.81673588059497 FALSE
"89" "s01" 89 4 6 15 24 0.4875 "right" "mid" "left" "right" "Choose the square with the most dots" "Crisp" -0.5 "Verbal" 0.5 "LtoR" -0.5 "Large" 0.5 "06:15:24" -0.75 "expected" 825 6.71538338633468 FALSE
"90" "s01" 90 3 34 25 16 0.3123529 "left" "mid" "right" "left" "Choose a square with many dots" "Vague" 0.5 "Verbal" 0.5 "RtoL" 0.5 "Large" 0.5 "16:25:34" -0.25 "expected" 2325 7.75147531802146 FALSE
"91" "s01" 91 3 44 35 26 0.2308442 "left" "mid" "right" "left" "Choose a square with many dots" "Vague" 0.5 "Verbal" 0.5 "RtoL" 0.5 "Large" 0.5 "26:35:44" 0.25 "expected" 1486 7.3038432252777 FALSE
"92" "s01" 92 4 54 45 36 0.1833333 "left" "mid" "right" "left" "Choose the square with the most dots" "Crisp" -0.5 "Verbal" 0.5 "RtoL" 0.5 "Large" 0.5 "36:45:54" 0.75 "expected" 1195 7.08590146436561 FALSE
"93" "s01" 93 3 24 15 6 0.4875 "left" "mid" "right" "left" "Choose a square with many dots" "Vague" 0.5 "Verbal" 0.5 "RtoL" 0.5 "Large" 0.5 "06:15:24" -0.75 "expected" 1483 7.30182234213793 FALSE
"94" "s01" 94 1 16 25 34 0.3123529 "left" "mid" "right" "mid" "Choose a square with about 20 dots" "Vague" 0.5 "Numeric" -0.5 "LtoR" -0.5 "Small" -0.5 "16:25:34" -0.25 "borderline" 2112 7.65539064482615 TRUE
"95" "s01" 95 2 44 35 26 0.2308442 "right" "mid" "left" "mid" "Choose the square with 26 dots" "Crisp" -0.5 "Numeric" -0.5 "RtoL" 0.5 "Small" -0.5 "26:35:44" 0.25 "borderline" 3120 8.04558828080353 TRUE
"96" "s01" 96 2 54 45 36 0.1833333 "right" "mid" "left" "left" "Choose the square with 36 dots" "Crisp" -0.5 "Numeric" -0.5 "RtoL" 0.5 "Small" -0.5 "36:45:54" 0.75 "extreme" 4594 8.43250638324904 FALSE
"97" "s01" 97 3 6 15 24 0.4875 "right" "mid" "left" "right" "Choose a square with many dots" "Vague" 0.5 "Verbal" 0.5 "LtoR" -0.5 "Large" 0.5 "06:15:24" -0.75 "expected" 717 6.57507584059962 FALSE
"98" "s01" 98 3 16 25 34 0.3123529 "left" "mid" "right" "left" "Choose a square with few dots" "Vague" 0.5 "Verbal" 0.5 "LtoR" -0.5 "Small" -0.5 "16:25:34" -0.25 "expected" 888 6.78897174299217 FALSE
"99" "s01" 99 1 44 35 26 0.2308442 "left" "mid" "right" "left" "Choose a square with about 40 dots" "Vague" 0.5 "Numeric" -0.5 "RtoL" 0.5 "Large" 0.5 "26:35:44" 0.25 "expected" 1204 7.09340462586877 FALSE
"100" "s01" 100 4 36 45 54 0.1833333 "left" "mid" "right" "left" "Choose the square with the fewest dots" "Crisp" -0.5 "Verbal" 0.5 "LtoR" -0.5 "Small" -0.5 "36:45:54" 0.75 "expected" 3062 8.02682357621763 FALSE
"101" "s01" 101 4 24 15 6 0.4875 "right" "mid" "left" "right" "Choose the square with the fewest dots" "Crisp" -0.5 "Verbal" 0.5 "RtoL" 0.5 "Small" -0.5 "06:15:24" -0.75 "expected" 1091 6.99484998583307 FALSE
"102" "s01" 102 1 16 25 34 0.3123529 "right" "mid" "left" "right" "Choose a square with about 30 dots" "Vague" 0.5 "Numeric" -0.5 "LtoR" -0.5 "Large" 0.5 "16:25:34" -0.25 "expected" 1631 7.39694860262101 FALSE
"103" "s01" 103 4 26 35 44 0.2308442 "left" "mid" "right" "left" "Choose the square with the fewest dots" "Crisp" -0.5 "Verbal" 0.5 "LtoR" -0.5 "Small" -0.5 "26:35:44" 0.25 "expected" 1593 7.37337430991005 FALSE
"104" "s01" 104 4 54 45 36 0.1833333 "right" "mid" "left" "right" "Choose the square with the fewest dots" "Crisp" -0.5 "Verbal" 0.5 "RtoL" 0.5 "Small" -0.5 "36:45:54" 0.75 "expected" 1233 7.11720550316434 FALSE
"105" "s01" 105 1 6 15 24 0.4875 "left" "mid" "right" "mid" "Choose a square with about 10 dots" "Vague" 0.5 "Numeric" -0.5 "LtoR" -0.5 "Small" -0.5 "06:15:24" -0.75 "borderline" 1081 6.98564181763921 TRUE
"106" "s01" 106 4 34 25 16 0.3123529 "left" "mid" "right" "left" "Choose the square with the most dots" "Crisp" -0.5 "Verbal" 0.5 "RtoL" 0.5 "Large" 0.5 "16:25:34" -0.25 "expected" 1687 7.43070708254597 FALSE
"107" "s01" 107 3 26 35 44 0.2308442 "left" "mid" "right" "left" "Choose a square with few dots" "Vague" 0.5 "Verbal" 0.5 "LtoR" -0.5 "Small" -0.5 "26:35:44" 0.25 "expected" 1900 7.54960916515453 FALSE
"108" "s01" 108 1 36 45 54 0.1833333 "right" "mid" "left" "right" "Choose a square with about 50 dots" "Vague" 0.5 "Numeric" -0.5 "LtoR" -0.5 "Large" 0.5 "36:45:54" 0.75 "expected" 1383 7.23201033166476 FALSE
"109" "s01" 109 3 6 15 24 0.4875 "left" "mid" "right" "left" "Choose a square with few dots" "Vague" 0.5 "Verbal" 0.5 "LtoR" -0.5 "Small" -0.5 "06:15:24" -0.75 "expected" 1557 7.350516171834 FALSE
"110" "s01" 110 2 16 25 34 0.3123529 "right" "mid" "left" "right" "Choose the square with 34 dots" "Crisp" -0.5 "Numeric" -0.5 "LtoR" -0.5 "Large" 0.5 "16:25:34" -0.25 "expected" 1104 7.00669522683704 FALSE
"111" "s01" 111 1 26 35 44 0.2308442 "right" "mid" "left" "right" "Choose a square with about 40 dots" "Vague" 0.5 "Numeric" -0.5 "LtoR" -0.5 "Large" 0.5 "26:35:44" 0.25 "expected" 1116 7.01750614294126 FALSE
"112" "s01" 112 1 36 45 54 0.1833333 "left" "mid" "right" "right" "Choose a square with about 40 dots" "Vague" 0.5 "Numeric" -0.5 "LtoR" -0.5 "Small" -0.5 "36:45:54" 0.75 "extreme" 1254 7.13409372119287 FALSE
"113" "s01" 113 2 6 15 24 0.4875 "left" "mid" "right" "left" "Choose the square with 6 dots" "Crisp" -0.5 "Numeric" -0.5 "LtoR" -0.5 "Small" -0.5 "06:15:24" -0.75 "expected" 1029 6.93634273583405 FALSE
"114" "s01" 114 4 34 25 16 0.3123529 "right" "mid" "left" "right" "Choose the square with the fewest dots" "Crisp" -0.5 "Verbal" 0.5 "RtoL" 0.5 "Small" -0.5 "16:25:34" -0.25 "expected" 1459 7.28550654852279 FALSE
"115" "s01" 115 3 44 35 26 0.2308442 "right" "mid" "left" "right" "Choose a square with few dots" "Vague" 0.5 "Verbal" 0.5 "RtoL" 0.5 "Small" -0.5 "26:35:44" 0.25 "expected" 1491 7.30720231476474 FALSE
"116" "s01" 116 4 36 45 54 0.1833333 "right" "mid" "left" "right" "Choose the square with the most dots" "Crisp" -0.5 "Verbal" 0.5 "LtoR" -0.5 "Large" 0.5 "36:45:54" 0.75 "expected" 1820 7.50659178007084 FALSE
"117" "s01" 117 1 24 15 6 0.4875 "left" "mid" "right" "left" "Choose a square with about 20 dots" "Vague" 0.5 "Numeric" -0.5 "RtoL" 0.5 "Large" 0.5 "06:15:24" -0.75 "expected" 952 6.85856503479136 FALSE
"118" "s01" 118 2 16 25 34 0.3123529 "left" "mid" "right" "mid" "Choose the square with 16 dots" "Crisp" -0.5 "Numeric" -0.5 "LtoR" -0.5 "Small" -0.5 "16:25:34" -0.25 "borderline" 1303 7.17242457712485 TRUE
"119" "s01" 119 2 44 35 26 0.2308442 "left" "mid" "right" "left" "Choose the square with 44 dots" "Crisp" -0.5 "Numeric" -0.5 "RtoL" 0.5 "Large" 0.5 "26:35:44" 0.25 "expected" 1659 7.41397029019044 FALSE
"120" "s01" 120 1 54 45 36 0.1833333 "left" "mid" "right" "left" "Choose a square with about 50 dots" "Vague" 0.5 "Numeric" -0.5 "RtoL" 0.5 "Large" 0.5 "36:45:54" 0.75 "expected" 1027 6.93439720992856 FALSE
"121" "s01" 121 2 24 15 6 0.4875 "left" "mid" "right" "left" "Choose the square with 24 dots" "Crisp" -0.5 "Numeric" -0.5 "RtoL" 0.5 "Large" 0.5 "06:15:24" -0.75 "expected" 1570 7.35883089834235 FALSE
"122" "s01" 122 1 34 25 16 0.3123529 "right" "mid" "left" "mid" "Choose a square with about 20 dots" "Vague" 0.5 "Numeric" -0.5 "RtoL" 0.5 "Small" -0.5 "16:25:34" -0.25 "borderline" 1100 7.00306545878646 TRUE
"123" "s01" 123 4 44 35 26 0.2308442 "right" "mid" "left" "right" "Choose the square with the fewest dots" "Crisp" -0.5 "Verbal" 0.5 "RtoL" 0.5 "Small" -0.5 "26:35:44" 0.25 "expected" 1433 7.26752542782817 FALSE
"124" "s01" 124 3 54 45 36 0.1833333 "left" "mid" "right" "left" "Choose a square with many dots" "Vague" 0.5 "Verbal" 0.5 "RtoL" 0.5 "Large" 0.5 "36:45:54" 0.75 "expected" 1005 6.91274282049318 FALSE
"125" "s01" 125 4 6 15 24 0.4875 "left" "mid" "right" "left" "Choose the square with the fewest dots" "Crisp" -0.5 "Verbal" 0.5 "LtoR" -0.5 "Small" -0.5 "06:15:24" -0.75 "expected" 1121 7.02197642307216 FALSE
"126" "s01" 126 4 16 25 34 0.3123529 "right" "mid" "left" "right" "Choose the square with the most dots" "Crisp" -0.5 "Verbal" 0.5 "LtoR" -0.5 "Large" 0.5 "16:25:34" -0.25 "expected" 1564 7.35500192110526 FALSE
"127" "s01" 127 2 26 35 44 0.2308442 "right" "mid" "left" "right" "Choose the square with 44 dots" "Crisp" -0.5 "Numeric" -0.5 "LtoR" -0.5 "Large" 0.5 "26:35:44" 0.25 "expected" 1016 6.92362862813843 FALSE
"128" "s01" 128 2 36 45 54 0.1833333 "right" "mid" "left" "right" "Choose the square with 54 dots" "Crisp" -0.5 "Numeric" -0.5 "LtoR" -0.5 "Large" 0.5 "36:45:54" 0.75 "expected" 2456 7.80628928926703 FALSE
"129" "s01" 129 1 24 15 6 0.4875 "right" "mid" "left" "mid" "Choose a square with about 10 dots" "Vague" 0.5 "Numeric" -0.5 "RtoL" 0.5 "Small" -0.5 "06:15:24" -0.75 "borderline" 1254 7.13409372119287 TRUE
"130" "s01" 130 1 34 25 16 0.3123529 "left" "mid" "right" "left" "Choose a square with about 30 dots" "Vague" 0.5 "Numeric" -0.5 "RtoL" 0.5 "Large" 0.5 "16:25:34" -0.25 "expected" 1799 7.49498623395053 FALSE
"131" "s01" 131 4 44 35 26 0.2308442 "left" "mid" "right" "left" "Choose the square with the most dots" "Crisp" -0.5 "Verbal" 0.5 "RtoL" 0.5 "Large" 0.5 "26:35:44" 0.25 "expected" 1286 7.15929190479756 FALSE
"132" "s01" 132 4 54 45 36 0.1833333 "right" "mid" "left" "mid" "Choose the square with the fewest dots" "Crisp" -0.5 "Verbal" 0.5 "RtoL" 0.5 "Small" -0.5 "36:45:54" 0.75 "borderline" 2192 7.69256964806791 TRUE
"133" "s01" 133 4 24 15 6 0.4875 "right" "mid" "left" "right" "Choose the square with the fewest dots" "Crisp" -0.5 "Verbal" 0.5 "RtoL" 0.5 "Small" -0.5 "06:15:24" -0.75 "expected" 1095 6.9985096422506 FALSE
"134" "s01" 134 4 16 25 34 0.3123529 "right" "mid" "left" "right" "Choose the square with the most dots" "Crisp" -0.5 "Verbal" 0.5 "LtoR" -0.5 "Large" 0.5 "16:25:34" -0.25 "expected" 764 6.63856778916652 FALSE
"135" "s01" 135 1 44 35 26 0.2308442 "left" "mid" "right" "left" "Choose a square with about 40 dots" "Vague" 0.5 "Numeric" -0.5 "RtoL" 0.5 "Large" 0.5 "26:35:44" 0.25 "expected" 1412 7.25276241805319 FALSE
"136" "s01" 136 2 54 45 36 0.1833333 "right" "mid" "left" "left" "Choose the square with 36 dots" "Crisp" -0.5 "Numeric" -0.5 "RtoL" 0.5 "Small" -0.5 "36:45:54" 0.75 "extreme" 2820 7.94449216393216 FALSE
"137" "s01" 137 1 6 15 24 0.4875 "right" "mid" "left" "right" "Choose a square with about 20 dots" "Vague" 0.5 "Numeric" -0.5 "LtoR" -0.5 "Large" 0.5 "06:15:24" -0.75 "expected" 1617 7.38832785957711 FALSE
"138" "s01" 138 3 34 25 16 0.3123529 "left" "mid" "right" "left" "Choose a square with many dots" "Vague" 0.5 "Verbal" 0.5 "RtoL" 0.5 "Large" 0.5 "16:25:34" -0.25 "expected" 2162 7.67878899819915 FALSE
"139" "s01" 139 2 44 35 26 0.2308442 "right" "mid" "left" "left" "Choose the square with 26 dots" "Crisp" -0.5 "Numeric" -0.5 "RtoL" 0.5 "Small" -0.5 "26:35:44" 0.25 "extreme" 4054 8.30745932701195 FALSE
"140" "s01" 140 1 54 45 36 0.1833333 "left" "mid" "right" "left" "Choose a square with about 50 dots" "Vague" 0.5 "Numeric" -0.5 "RtoL" 0.5 "Large" 0.5 "36:45:54" 0.75 "expected" 2135 7.66622192566273 FALSE
"141" "s01" 141 3 6 15 24 0.4875 "right" "mid" "left" "right" "Choose a square with many dots" "Vague" 0.5 "Verbal" 0.5 "LtoR" -0.5 "Large" 0.5 "06:15:24" -0.75 "expected" 1307 7.17548971362422 FALSE
"142" "s01" 142 4 34 25 16 0.3123529 "right" "mid" "left" "right" "Choose the square with the fewest dots" "Crisp" -0.5 "Verbal" 0.5 "RtoL" 0.5 "Small" -0.5 "16:25:34" -0.25 "expected" 1039 6.94601399109923 FALSE
"143" "s01" 143 1 26 35 44 0.2308442 "left" "mid" "right" "right" "Choose a square with about 30 dots" "Vague" 0.5 "Numeric" -0.5 "LtoR" -0.5 "Small" -0.5 "26:35:44" 0.25 "extreme" 1460 7.28619171470238 FALSE
"144" "s01" 144 3 36 45 54 0.1833333 "left" "mid" "right" "left" "Choose a square with few dots" "Vague" 0.5 "Verbal" 0.5 "LtoR" -0.5 "Small" -0.5 "36:45:54" 0.75 "expected" 1633 7.39817409297047 FALSE
"145" "s01" 145 3 6 15 24 0.4875 "left" "mid" "right" "left" "Choose a square with few dots" "Vague" 0.5 "Verbal" 0.5 "LtoR" -0.5 "Small" -0.5 "06:15:24" -0.75 "expected" 1268 7.14519613499717 FALSE
"146" "s01" 146 2 16 25 34 0.3123529 "right" "mid" "left" "right" "Choose the square with 34 dots" "Crisp" -0.5 "Numeric" -0.5 "LtoR" -0.5 "Large" 0.5 "16:25:34" -0.25 "expected" 1688 7.4312996751559 FALSE
"147" "s01" 147 2 44 35 26 0.2308442 "left" "mid" "right" "left" "Choose the square with 44 dots" "Crisp" -0.5 "Numeric" -0.5 "RtoL" 0.5 "Large" 0.5 "26:35:44" 0.25 "expected" 1861 7.52886925664225 FALSE
"148" "s01" 148 4 36 45 54 0.1833333 "right" "mid" "left" "right" "Choose the square with the most dots" "Crisp" -0.5 "Verbal" 0.5 "LtoR" -0.5 "Large" 0.5 "36:45:54" 0.75 "expected" 1293 7.16472037877186 FALSE
"149" "s01" 149 2 24 15 6 0.4875 "right" "mid" "left" "right" "Choose the square with 6 dots" "Crisp" -0.5 "Numeric" -0.5 "RtoL" 0.5 "Small" -0.5 "06:15:24" -0.75 "expected" 1200 7.09007683577609 FALSE
"150" "s01" 150 2 34 25 16 0.3123529 "left" "mid" "right" "left" "Choose the square with 34 dots" "Crisp" -0.5 "Numeric" -0.5 "RtoL" 0.5 "Large" 0.5 "16:25:34" -0.25 "expected" 1262 7.14045304310116 FALSE
"151" "s01" 151 2 26 35 44 0.2308442 "left" "mid" "right" "mid" "Choose the square with 26 dots" "Crisp" -0.5 "Numeric" -0.5 "LtoR" -0.5 "Small" -0.5 "26:35:44" 0.25 "borderline" 2426 7.793999089504 TRUE
"152" "s01" 152 3 54 45 36 0.1833333 "left" "mid" "right" "left" "Choose a square with many dots" "Vague" 0.5 "Verbal" 0.5 "RtoL" 0.5 "Large" 0.5 "36:45:54" 0.75 "expected" 2804 7.93880224815448 FALSE
"153" "s01" 153 3 24 15 6 0.4875 "right" "mid" "left" "right" "Choose a square with few dots" "Vague" 0.5 "Verbal" 0.5 "RtoL" 0.5 "Small" -0.5 "06:15:24" -0.75 "expected" 1153 7.05012252026906 FALSE
"154" "s01" 154 4 34 25 16 0.3123529 "left" "mid" "right" "left" "Choose the square with the most dots" "Crisp" -0.5 "Verbal" 0.5 "RtoL" 0.5 "Large" 0.5 "16:25:34" -0.25 "expected" 1108 7.01031186730723 FALSE
"155" "s01" 155 3 44 35 26 0.2308442 "right" "mid" "left" "right" "Choose a square with few dots" "Vague" 0.5 "Verbal" 0.5 "RtoL" 0.5 "Small" -0.5 "26:35:44" 0.25 "expected" 1362 7.21670948670946 FALSE
"156" "s01" 156 3 36 45 54 0.1833333 "right" "mid" "left" "right" "Choose a square with many dots" "Vague" 0.5 "Verbal" 0.5 "LtoR" -0.5 "Large" 0.5 "36:45:54" 0.75 "expected" 2119 7.6586995582683 FALSE
"157" "s01" 157 2 6 15 24 0.4875 "right" "mid" "left" "right" "Choose the square with 24 dots" "Crisp" -0.5 "Numeric" -0.5 "LtoR" -0.5 "Large" 0.5 "06:15:24" -0.75 "expected" 1442 7.27378631784489 FALSE
"158" "s01" 158 3 16 25 34 0.3123529 "left" "mid" "right" "left" "Choose a square with few dots" "Vague" 0.5 "Verbal" 0.5 "LtoR" -0.5 "Small" -0.5 "16:25:34" -0.25 "expected" 1065 6.97073007814353 FALSE
"159" "s01" 159 3 26 35 44 0.2308442 "left" "mid" "right" "left" "Choose a square with few dots" "Vague" 0.5 "Verbal" 0.5 "LtoR" -0.5 "Small" -0.5 "26:35:44" 0.25 "expected" 1112 7.01391547481053 FALSE
"160" "s01" 160 1 36 45 54 0.1833333 "right" "mid" "left" "right" "Choose a square with about 50 dots" "Vague" 0.5 "Numeric" -0.5 "LtoR" -0.5 "Large" 0.5 "36:45:54" 0.75 "expected" 1188 7.08002649992259 FALSE
"161" "s01" 161 2 6 15 24 0.4875 "left" "mid" "right" "left" "Choose the square with 6 dots" "Crisp" -0.5 "Numeric" -0.5 "LtoR" -0.5 "Small" -0.5 "06:15:24" -0.75 "expected" 734 6.59850902861452 FALSE
"162" "s01" 162 4 16 25 34 0.3123529 "left" "mid" "right" "left" "Choose the square with the fewest dots" "Crisp" -0.5 "Verbal" 0.5 "LtoR" -0.5 "Small" -0.5 "16:25:34" -0.25 "expected" 1400 7.24422751560335 FALSE
"163" "s01" 163 3 26 35 44 0.2308442 "right" "mid" "left" "right" "Choose a square with many dots" "Vague" 0.5 "Verbal" 0.5 "LtoR" -0.5 "Large" 0.5 "26:35:44" 0.25 "expected" 1673 7.42237370098682 FALSE
"164" "s01" 164 2 36 45 54 0.1833333 "right" "mid" "left" "right" "Choose the square with 54 dots" "Crisp" -0.5 "Numeric" -0.5 "LtoR" -0.5 "Large" 0.5 "36:45:54" 0.75 "expected" 1631 7.39694860262101 FALSE
"165" "s01" 165 3 24 15 6 0.4875 "left" "mid" "right" "left" "Choose a square with many dots" "Vague" 0.5 "Verbal" 0.5 "RtoL" 0.5 "Large" 0.5 "06:15:24" -0.75 "expected" 1971 7.58629630715272 FALSE
"166" "s01" 166 1 16 25 34 0.3123529 "left" "mid" "right" "mid" "Choose a square with about 20 dots" "Vague" 0.5 "Numeric" -0.5 "LtoR" -0.5 "Small" -0.5 "16:25:34" -0.25 "borderline" 3524 8.16735198705607 TRUE
"167" "s01" 167 2 26 35 44 0.2308442 "right" "mid" "left" "right" "Choose the square with 44 dots" "Crisp" -0.5 "Numeric" -0.5 "LtoR" -0.5 "Large" 0.5 "26:35:44" 0.25 "expected" 1128 7.028201432058 FALSE
"168" "s01" 168 1 54 45 36 0.1833333 "right" "mid" "left" "left" "Choose a square with about 40 dots" "Vague" 0.5 "Numeric" -0.5 "RtoL" 0.5 "Small" -0.5 "36:45:54" 0.75 "extreme" 1962 7.58171964012531 FALSE
"169" "s01" 169 4 24 15 6 0.4875 "left" "mid" "right" "left" "Choose the square with the most dots" "Crisp" -0.5 "Verbal" 0.5 "RtoL" 0.5 "Large" 0.5 "06:15:24" -0.75 "expected" 1045 6.95177216439891 FALSE
"170" "s01" 170 1 34 25 16 0.3123529 "right" "mid" "left" "mid" "Choose a square with about 20 dots" "Vague" 0.5 "Numeric" -0.5 "RtoL" 0.5 "Small" -0.5 "16:25:34" -0.25 "borderline" 2018 7.60986220091355 TRUE
"171" "s01" 171 4 44 35 26 0.2308442 "right" "mid" "left" "right" "Choose the square with the fewest dots" "Crisp" -0.5 "Verbal" 0.5 "RtoL" 0.5 "Small" -0.5 "26:35:44" 0.25 "expected" 1240 7.12286665859908 FALSE
"172" "s01" 172 4 54 45 36 0.1833333 "left" "mid" "right" "left" "Choose the square with the most dots" "Crisp" -0.5 "Verbal" 0.5 "RtoL" 0.5 "Large" 0.5 "36:45:54" 0.75 "expected" 1282 7.15617663748062 FALSE
"173" "s01" 173 1 24 15 6 0.4875 "left" "mid" "right" "left" "Choose a square with about 20 dots" "Vague" 0.5 "Numeric" -0.5 "RtoL" 0.5 "Large" 0.5 "06:15:24" -0.75 "expected" 1276 7.15148546390474 FALSE
"174" "s01" 174 3 16 25 34 0.3123529 "right" "mid" "left" "right" "Choose a square with many dots" "Vague" 0.5 "Verbal" 0.5 "LtoR" -0.5 "Large" 0.5 "16:25:34" -0.25 "expected" 1256 7.13568734702814 FALSE
"175" "s01" 175 1 44 35 26 0.2308442 "right" "mid" "left" "left" "Choose a square with about 30 dots" "Vague" 0.5 "Numeric" -0.5 "RtoL" 0.5 "Small" -0.5 "26:35:44" 0.25 "extreme" 1796 7.49331724886215 FALSE
"176" "s01" 176 2 36 45 54 0.1833333 "left" "mid" "right" "right" "Choose the square with 36 dots" "Crisp" -0.5 "Numeric" -0.5 "LtoR" -0.5 "Small" -0.5 "36:45:54" 0.75 "extreme" 1780 7.48436864328613 FALSE
"177" "s01" 177 4 6 15 24 0.4875 "right" "mid" "left" "right" "Choose the square with the most dots" "Crisp" -0.5 "Verbal" 0.5 "LtoR" -0.5 "Large" 0.5 "06:15:24" -0.75 "expected" 1565 7.35564110297425 FALSE
"178" "s01" 178 1 16 25 34 0.3123529 "right" "mid" "left" "right" "Choose a square with about 30 dots" "Vague" 0.5 "Numeric" -0.5 "LtoR" -0.5 "Large" 0.5 "16:25:34" -0.25 "expected" 1470 7.29301767977278 FALSE
"179" "s01" 179 4 26 35 44 0.2308442 "right" "mid" "left" "right" "Choose the square with the most dots" "Crisp" -0.5 "Verbal" 0.5 "LtoR" -0.5 "Large" 0.5 "26:35:44" 0.25 "expected" 1841 7.51806418123308 FALSE
"180" "s01" 180 4 36 45 54 0.1833333 "left" "mid" "right" "left" "Choose the square with the fewest dots" "Crisp" -0.5 "Verbal" 0.5 "LtoR" -0.5 "Small" -0.5 "36:45:54" 0.75 "expected" 2064 7.63240112660145 FALSE
"181" "s01" 181 4 6 15 24 0.4875 "left" "mid" "right" "left" "Choose the square with the fewest dots" "Crisp" -0.5 "Verbal" 0.5 "LtoR" -0.5 "Small" -0.5 "06:15:24" -0.75 "expected" 866 6.76388490856244 FALSE
"182" "s01" 182 2 16 25 34 0.3123529 "left" "mid" "right" "mid" "Choose the square with 16 dots" "Crisp" -0.5 "Numeric" -0.5 "LtoR" -0.5 "Small" -0.5 "16:25:34" -0.25 "borderline" 1229 7.11395610956603 TRUE
"183" "s01" 183 3 44 35 26 0.2308442 "left" "mid" "right" "left" "Choose a square with many dots" "Vague" 0.5 "Verbal" 0.5 "RtoL" 0.5 "Large" 0.5 "26:35:44" 0.25 "expected" 948 6.85435450225502 FALSE
"184" "s01" 184 1 36 45 54 0.1833333 "left" "mid" "right" "right" "Choose a square with about 40 dots" "Vague" 0.5 "Numeric" -0.5 "LtoR" -0.5 "Small" -0.5 "36:45:54" 0.75 "extreme" 789 6.67076632084587 FALSE
"185" "s01" 185 2 24 15 6 0.4875 "left" "mid" "right" "left" "Choose the square with 24 dots" "Crisp" -0.5 "Numeric" -0.5 "RtoL" 0.5 "Large" 0.5 "06:15:24" -0.75 "expected" 1131 7.03085747611612 FALSE
"186" "s01" 186 3 34 25 16 0.3123529 "right" "mid" "left" "right" "Choose a square with few dots" "Vague" 0.5 "Verbal" 0.5 "RtoL" 0.5 "Small" -0.5 "16:25:34" -0.25 "expected" 1212 7.10002716662926 FALSE
"187" "s01" 187 4 26 35 44 0.2308442 "left" "mid" "right" "left" "Choose the square with the fewest dots" "Crisp" -0.5 "Verbal" 0.5 "LtoR" -0.5 "Small" -0.5 "26:35:44" 0.25 "expected" 1228 7.11314210870709 FALSE
"188" "s01" 188 2 54 45 36 0.1833333 "left" "mid" "right" "left" "Choose the square with 54 dots" "Crisp" -0.5 "Numeric" -0.5 "RtoL" 0.5 "Large" 0.5 "36:45:54" 0.75 "expected" 1501 7.31388683163346 FALSE
"189" "s01" 189 1 6 15 24 0.4875 "left" "mid" "right" "mid" "Choose a square with about 10 dots" "Vague" 0.5 "Numeric" -0.5 "LtoR" -0.5 "Small" -0.5 "06:15:24" -0.75 "borderline" 1285 7.15851399732932 TRUE
"190" "s01" 190 2 34 25 16 0.3123529 "right" "mid" "left" "mid" "Choose the square with 16 dots" "Crisp" -0.5 "Numeric" -0.5 "RtoL" 0.5 "Small" -0.5 "16:25:34" -0.25 "borderline" 1980 7.59085212368858 TRUE
"191" "s01" 191 1 26 35 44 0.2308442 "right" "mid" "left" "right" "Choose a square with about 40 dots" "Vague" 0.5 "Numeric" -0.5 "LtoR" -0.5 "Large" 0.5 "26:35:44" 0.25 "expected" 1671 7.42117752859539 FALSE
"192" "s01" 192 3 54 45 36 0.1833333 "right" "mid" "left" "right" "Choose a square with few dots" "Vague" 0.5 "Verbal" 0.5 "RtoL" 0.5 "Small" -0.5 "36:45:54" 0.75 "expected" 2294 7.73805229768932 FALSE
"193" "s01" 193 3 6 15 24 0.4875 "right" "mid" "left" "right" "Choose a square with many dots" "Vague" 0.5 "Verbal" 0.5 "LtoR" -0.5 "Large" 0.5 "06:15:24" -0.75 "expected" 943 6.84906628263346 FALSE
"194" "s01" 194 2 16 25 34 0.3123529 "left" "mid" "right" "mid" "Choose the square with 16 dots" "Crisp" -0.5 "Numeric" -0.5 "LtoR" -0.5 "Small" -0.5 "16:25:34" -0.25 "borderline" 1466 7.2902928824466 TRUE
"195" "s01" 195 2 26 35 44 0.2308442 "right" "mid" "left" "right" "Choose the square with 44 dots" "Crisp" -0.5 "Numeric" -0.5 "LtoR" -0.5 "Large" 0.5 "26:35:44" 0.25 "expected" 872 6.77078942390898 FALSE
"196" "s01" 196 1 54 45 36 0.1833333 "left" "mid" "right" "left" "Choose a square with about 50 dots" "Vague" 0.5 "Numeric" -0.5 "RtoL" 0.5 "Large" 0.5 "36:45:54" 0.75 "expected" 761 6.63463335786169 FALSE
"197" "s01" 197 4 6 15 24 0.4875 "right" "mid" "left" "right" "Choose the square with the most dots" "Crisp" -0.5 "Verbal" 0.5 "LtoR" -0.5 "Large" 0.5 "06:15:24" -0.75 "expected" 615 6.42162226780652 FALSE
"198" "s01" 198 3 16 25 34 0.3123529 "left" "mid" "right" "left" "Choose a square with few dots" "Vague" 0.5 "Verbal" 0.5 "LtoR" -0.5 "Small" -0.5 "16:25:34" -0.25 "expected" 805 6.69084227741856 FALSE
"199" "s01" 199 4 26 35 44 0.2308442 "left" "mid" "right" "left" "Choose the square with the fewest dots" "Crisp" -0.5 "Verbal" 0.5 "LtoR" -0.5 "Small" -0.5 "26:35:44" 0.25 "expected" 1040 6.94697599213542 FALSE
"200" "s01" 200 4 36 45 54 0.1833333 "left" "mid" "right" "left" "Choose the square with the fewest dots" "Crisp" -0.5 "Verbal" 0.5 "LtoR" -0.5 "Small" -0.5 "36:45:54" 0.75 "expected" 2051 7.62608275807238 FALSE
"201" "s01" 201 4 24 15 6 0.4875 "right" "mid" "left" "right" "Choose the square with the fewest dots" "Crisp" -0.5 "Verbal" 0.5 "RtoL" 0.5 "Small" -0.5 "06:15:24" -0.75 "expected" 1247 7.12849594568004 FALSE
"202" "s01" 202 2 16 25 34 0.3123529 "right" "mid" "left" "right" "Choose the square with 34 dots" "Crisp" -0.5 "Numeric" -0.5 "LtoR" -0.5 "Large" 0.5 "16:25:34" -0.25 "expected" 1943 7.57198844937744 FALSE
"203" "s01" 203 3 44 35 26 0.2308442 "right" "mid" "left" "right" "Choose a square with few dots" "Vague" 0.5 "Verbal" 0.5 "RtoL" 0.5 "Small" -0.5 "26:35:44" 0.25 "expected" 979 6.88653164253051 FALSE
"204" "s01" 204 2 54 45 36 0.1833333 "right" "mid" "left" "left" "Choose the square with 36 dots" "Crisp" -0.5 "Numeric" -0.5 "RtoL" 0.5 "Small" -0.5 "36:45:54" 0.75 "extreme" 2863 7.95962530509811 FALSE
"205" "s01" 205 1 24 15 6 0.4875 "right" "mid" "left" "mid" "Choose a square with about 10 dots" "Vague" 0.5 "Numeric" -0.5 "RtoL" 0.5 "Small" -0.5 "06:15:24" -0.75 "borderline" 1087 6.99117688712121 TRUE
"206" "s01" 206 1 34 25 16 0.3123529 "left" "mid" "right" "left" "Choose a square with about 30 dots" "Vague" 0.5 "Numeric" -0.5 "RtoL" 0.5 "Large" 0.5 "16:25:34" -0.25 "expected" 873 6.7719355558396 FALSE
"207" "s01" 207 3 26 35 44 0.2308442 "right" "mid" "left" "right" "Choose a square with many dots" "Vague" 0.5 "Verbal" 0.5 "LtoR" -0.5 "Large" 0.5 "26:35:44" 0.25 "expected" 1047 6.95368421087054 FALSE
"208" "s01" 208 2 36 45 54 0.1833333 "right" "mid" "left" "right" "Choose the square with 54 dots" "Crisp" -0.5 "Numeric" -0.5 "LtoR" -0.5 "Large" 0.5 "36:45:54" 0.75 "expected" 842 6.73578001424233 FALSE
"209" "s01" 209 3 24 15 6 0.4875 "right" "mid" "left" "right" "Choose a square with few dots" "Vague" 0.5 "Verbal" 0.5 "RtoL" 0.5 "Small" -0.5 "06:15:24" -0.75 "expected" 821 6.71052310945243 FALSE
"210" "s01" 210 3 34 25 16 0.3123529 "left" "mid" "right" "left" "Choose a square with many dots" "Vague" 0.5 "Verbal" 0.5 "RtoL" 0.5 "Large" 0.5 "16:25:34" -0.25 "expected" 1849 7.52240023138712 FALSE
"211" "s01" 211 2 44 35 26 0.2308442 "left" "mid" "right" "left" "Choose the square with 44 dots" "Crisp" -0.5 "Numeric" -0.5 "RtoL" 0.5 "Large" 0.5 "26:35:44" 0.25 "expected" 1229 7.11395610956603 FALSE
"212" "s01" 212 3 36 45 54 0.1833333 "right" "mid" "left" "right" "Choose a square with many dots" "Vague" 0.5 "Verbal" 0.5 "LtoR" -0.5 "Large" 0.5 "36:45:54" 0.75 "expected" 1512 7.32118855673948 FALSE
"213" "s01" 213 2 6 15 24 0.4875 "left" "mid" "right" "left" "Choose the square with 6 dots" "Crisp" -0.5 "Numeric" -0.5 "LtoR" -0.5 "Small" -0.5 "06:15:24" -0.75 "expected" 838 6.73101810048208 FALSE
"214" "s01" 214 2 34 25 16 0.3123529 "left" "mid" "right" "left" "Choose the square with 34 dots" "Crisp" -0.5 "Numeric" -0.5 "RtoL" 0.5 "Large" 0.5 "16:25:34" -0.25 "expected" 1471 7.29369772060144 FALSE
"215" "s01" 215 4 44 35 26 0.2308442 "left" "mid" "right" "left" "Choose the square with the most dots" "Crisp" -0.5 "Verbal" 0.5 "RtoL" 0.5 "Large" 0.5 "26:35:44" 0.25 "expected" 1251 7.13169851046691 FALSE
"216" "s01" 216 2 36 45 54 0.1833333 "left" "mid" "right" "right" "Choose the square with 36 dots" "Crisp" -0.5 "Numeric" -0.5 "LtoR" -0.5 "Small" -0.5 "36:45:54" 0.75 "extreme" 1150 7.0475172213573 FALSE
"217" "s01" 217 1 6 15 24 0.4875 "right" "mid" "left" "right" "Choose a square with about 20 dots" "Vague" 0.5 "Numeric" -0.5 "LtoR" -0.5 "Large" 0.5 "06:15:24" -0.75 "expected" 1436 7.26961674960817 FALSE
"218" "s01" 218 3 16 25 34 0.3123529 "right" "mid" "left" "right" "Choose a square with many dots" "Vague" 0.5 "Verbal" 0.5 "LtoR" -0.5 "Large" 0.5 "16:25:34" -0.25 "expected" 1352 7.20934025660291 FALSE
"219" "s01" 219 3 26 35 44 0.2308442 "left" "mid" "right" "left" "Choose a square with few dots" "Vague" 0.5 "Verbal" 0.5 "LtoR" -0.5 "Small" -0.5 "26:35:44" 0.25 "expected" 1199 7.08924315502751 FALSE
"220" "s01" 220 1 54 45 36 0.1833333 "right" "mid" "left" "left" "Choose a square with about 40 dots" "Vague" 0.5 "Numeric" -0.5 "RtoL" 0.5 "Small" -0.5 "36:45:54" 0.75 "extreme" 1804 7.49776170062257 FALSE
"221" "s01" 221 4 6 15 24 0.4875 "left" "mid" "right" "left" "Choose the square with the fewest dots" "Crisp" -0.5 "Verbal" 0.5 "LtoR" -0.5 "Small" -0.5 "06:15:24" -0.75 "expected" 1254 7.13409372119287 FALSE
"222" "s01" 222 4 16 25 34 0.3123529 "left" "mid" "right" "left" "Choose the square with the fewest dots" "Crisp" -0.5 "Verbal" 0.5 "LtoR" -0.5 "Small" -0.5 "16:25:34" -0.25 "expected" 1291 7.16317239084664 FALSE
"223" "s01" 223 1 44 35 26 0.2308442 "right" "mid" "left" "left" "Choose a square with about 30 dots" "Vague" 0.5 "Numeric" -0.5 "RtoL" 0.5 "Small" -0.5 "26:35:44" 0.25 "extreme" 1175 7.06902342657826 FALSE
"224" "s01" 224 4 54 45 36 0.1833333 "right" "mid" "left" "left" "Choose the square with the fewest dots" "Crisp" -0.5 "Verbal" 0.5 "RtoL" 0.5 "Small" -0.5 "36:45:54" 0.75 "extreme" 1938 7.56941179245071 FALSE
"225" "s01" 225 1 6 15 24 0.4875 "left" "mid" "right" "mid" "Choose a square with about 10 dots" "Vague" 0.5 "Numeric" -0.5 "LtoR" -0.5 "Small" -0.5 "06:15:24" -0.75 "borderline" 2501 7.82444593087762 TRUE
"226" "s01" 226 1 16 25 34 0.3123529 "right" "mid" "left" "right" "Choose a square with about 30 dots" "Vague" 0.5 "Numeric" -0.5 "LtoR" -0.5 "Large" 0.5 "16:25:34" -0.25 "expected" 1986 7.59387784460512 FALSE
"227" "s01" 227 1 26 35 44 0.2308442 "left" "mid" "right" "right" "Choose a square with about 30 dots" "Vague" 0.5 "Numeric" -0.5 "LtoR" -0.5 "Small" -0.5 "26:35:44" 0.25 "extreme" 1378 7.2283884515736 FALSE
"228" "s01" 228 3 54 45 36 0.1833333 "right" "mid" "left" "mid" "Choose a square with few dots" "Vague" 0.5 "Verbal" 0.5 "RtoL" 0.5 "Small" -0.5 "36:45:54" 0.75 "borderline" 3158 8.05769419481559 TRUE
"229" "s01" 229 4 24 15 6 0.4875 "left" "mid" "right" "left" "Choose the square with the most dots" "Crisp" -0.5 "Verbal" 0.5 "RtoL" 0.5 "Large" 0.5 "06:15:24" -0.75 "expected" 1427 7.26332961747684 FALSE
"230" "s01" 230 4 16 25 34 0.3123529 "right" "mid" "left" "right" "Choose the square with the most dots" "Crisp" -0.5 "Verbal" 0.5 "LtoR" -0.5 "Large" 0.5 "16:25:34" -0.25 "expected" 1218 7.10496544826984 FALSE
"231" "s01" 231 1 44 35 26 0.2308442 "left" "mid" "right" "left" "Choose a square with about 40 dots" "Vague" 0.5 "Numeric" -0.5 "RtoL" 0.5 "Large" 0.5 "26:35:44" 0.25 "expected" 1063 6.96885037834195 FALSE
"232" "s01" 232 2 54 45 36 0.1833333 "left" "mid" "right" "left" "Choose the square with 54 dots" "Crisp" -0.5 "Numeric" -0.5 "RtoL" 0.5 "Large" 0.5 "36:45:54" 0.75 "expected" 1297 7.16780918431644 FALSE
"233" "s01" 233 2 6 15 24 0.4875 "right" "mid" "left" "right" "Choose the square with 24 dots" "Crisp" -0.5 "Numeric" -0.5 "LtoR" -0.5 "Large" 0.5 "06:15:24" -0.75 "expected" 2573 7.85282781228174 FALSE
"234" "s01" 234 1 16 25 34 0.3123529 "left" "mid" "right" "mid" "Choose a square with about 20 dots" "Vague" 0.5 "Numeric" -0.5 "LtoR" -0.5 "Small" -0.5 "16:25:34" -0.25 "borderline" 2250 7.71868549519847 TRUE
"235" "s01" 235 3 44 35 26 0.2308442 "left" "mid" "right" "left" "Choose a square with many dots" "Vague" 0.5 "Verbal" 0.5 "RtoL" 0.5 "Large" 0.5 "26:35:44" 0.25 "expected" 1457 7.2841348061952 FALSE
"236" "s01" 236 4 36 45 54 0.1833333 "right" "mid" "left" "right" "Choose the square with the most dots" "Crisp" -0.5 "Verbal" 0.5 "LtoR" -0.5 "Large" 0.5 "36:45:54" 0.75 "expected" 1118 7.01929665371504 FALSE
"237" "s01" 237 3 24 15 6 0.4875 "left" "mid" "right" "left" "Choose a square with many dots" "Vague" 0.5 "Verbal" 0.5 "RtoL" 0.5 "Large" 0.5 "06:15:24" -0.75 "expected" 2245 7.71646080017636 FALSE
"238" "s01" 238 1 34 25 16 0.3123529 "right" "mid" "left" "mid" "Choose a square with about 20 dots" "Vague" 0.5 "Numeric" -0.5 "RtoL" 0.5 "Small" -0.5 "16:25:34" -0.25 "borderline" 2330 7.75362354655975 TRUE
"239" "s01" 239 2 44 35 26 0.2308442 "right" "mid" "left" "mid" "Choose the square with 26 dots" "Crisp" -0.5 "Numeric" -0.5 "RtoL" 0.5 "Small" -0.5 "26:35:44" 0.25 "borderline" 3040 8.01961279440027 TRUE
"240" "s01" 240 4 54 45 36 0.1833333 "left" "mid" "right" "left" "Choose the square with the most dots" "Crisp" -0.5 "Verbal" 0.5 "RtoL" 0.5 "Large" 0.5 "36:45:54" 0.75 "expected" 804 6.68959926917897 FALSE
"241" "s01" 241 2 24 15 6 0.4875 "right" "mid" "left" "right" "Choose the square with 6 dots" "Crisp" -0.5 "Numeric" -0.5 "RtoL" 0.5 "Small" -0.5 "06:15:24" -0.75 "expected" 1247 7.12849594568004 FALSE
"242" "s01" 242 2 34 25 16 0.3123529 "right" "mid" "left" "right" "Choose the square with 16 dots" "Crisp" -0.5 "Numeric" -0.5 "RtoL" 0.5 "Small" -0.5 "16:25:34" -0.25 "expected" 2478 7.81520706218909 FALSE
"243" "s01" 243 1 26 35 44 0.2308442 "right" "mid" "left" "right" "Choose a square with about 40 dots" "Vague" 0.5 "Numeric" -0.5 "LtoR" -0.5 "Large" 0.5 "26:35:44" 0.25 "expected" 1475 7.29641326877392 FALSE
"244" "s01" 244 1 36 45 54 0.1833333 "right" "mid" "left" "right" "Choose a square with about 50 dots" "Vague" 0.5 "Numeric" -0.5 "LtoR" -0.5 "Large" 0.5 "36:45:54" 0.75 "expected" 1433 7.26752542782817 FALSE
"245" "s01" 245 2 24 15 6 0.4875 "left" "mid" "right" "left" "Choose the square with 24 dots" "Crisp" -0.5 "Numeric" -0.5 "RtoL" 0.5 "Large" 0.5 "06:15:24" -0.75 "expected" 1822 7.5076900778199 FALSE
"246" "s01" 246 3 34 25 16 0.3123529 "right" "mid" "left" "right" "Choose a square with few dots" "Vague" 0.5 "Verbal" 0.5 "RtoL" 0.5 "Small" -0.5 "16:25:34" -0.25 "expected" 1782 7.48549160803075 FALSE
"247" "s01" 247 2 26 35 44 0.2308442 "left" "mid" "right" "mid" "Choose the square with 26 dots" "Crisp" -0.5 "Numeric" -0.5 "LtoR" -0.5 "Small" -0.5 "26:35:44" 0.25 "borderline" 1448 7.27793857294566 TRUE
"248" "s01" 248 3 54 45 36 0.1833333 "left" "mid" "right" "left" "Choose a square with many dots" "Vague" 0.5 "Verbal" 0.5 "RtoL" 0.5 "Large" 0.5 "36:45:54" 0.75 "expected" 1679 7.42595365707754 FALSE
"249" "s01" 249 3 6 15 24 0.4875 "left" "mid" "right" "left" "Choose a square with few dots" "Vague" 0.5 "Verbal" 0.5 "LtoR" -0.5 "Small" -0.5 "06:15:24" -0.75 "expected" 1052 6.95844839329766 FALSE
"250" "s01" 250 4 34 25 16 0.3123529 "left" "mid" "right" "left" "Choose the square with the most dots" "Crisp" -0.5 "Verbal" 0.5 "RtoL" 0.5 "Large" 0.5 "16:25:34" -0.25 "expected" 1151 7.04838640872188 FALSE
"251" "s01" 251 4 44 35 26 0.2308442 "right" "mid" "left" "right" "Choose the square with the fewest dots" "Crisp" -0.5 "Verbal" 0.5 "RtoL" 0.5 "Small" -0.5 "26:35:44" 0.25 "expected" 2248 7.71779621101358 FALSE
"252" "s01" 252 1 36 45 54 0.1833333 "left" "mid" "right" "right" "Choose a square with about 40 dots" "Vague" 0.5 "Numeric" -0.5 "LtoR" -0.5 "Small" -0.5 "36:45:54" 0.75 "extreme" 1766 7.47647238116391 FALSE
"253" "s01" 253 1 24 15 6 0.4875 "left" "mid" "right" "mid" "Choose a square with about 20 dots" "Vague" 0.5 "Numeric" -0.5 "RtoL" 0.5 "Large" 0.5 "06:15:24" -0.75 "borderline" 2872 7.96276393016811 TRUE
"254" "s01" 254 4 34 25 16 0.3123529 "right" "mid" "left" "right" "Choose the square with the fewest dots" "Crisp" -0.5 "Verbal" 0.5 "RtoL" 0.5 "Small" -0.5 "16:25:34" -0.25 "expected" 2537 7.83873755959928 FALSE
"255" "s01" 255 4 26 35 44 0.2308442 "right" "mid" "left" "right" "Choose the square with the most dots" "Crisp" -0.5 "Verbal" 0.5 "LtoR" -0.5 "Large" 0.5 "26:35:44" 0.25 "expected" 1008 6.91572344863131 FALSE
"256" "s01" 256 3 36 45 54 0.1833333 "left" "mid" "right" "left" "Choose a square with few dots" "Vague" 0.5 "Verbal" 0.5 "LtoR" -0.5 "Small" -0.5 "36:45:54" 0.75 "expected" 1476 7.29709100516042 FALSE
"257" "s02" 1 1 24 15 6 0.4875 "right" "mid" "left" "mid" "Choose a square with about 10 dots" "Vague" 0.5 "Numeric" -0.5 "RtoL" 0.5 "Small" -0.5 "06:15:24" -0.75 "borderline" 1915 7.55747290161475 TRUE
"258" "s02" 2 2 16 25 34 0.3123529 "left" "mid" "right" "mid" "Choose the square with 16 dots" "Crisp" -0.5 "Numeric" -0.5 "LtoR" -0.5 "Small" -0.5 "16:25:34" -0.25 "borderline" 1617 7.38832785957711 TRUE
"259" "s02" 3 2 26 35 44 0.2308442 "right" "mid" "left" "right" "Choose the square with 44 dots" "Crisp" -0.5 "Numeric" -0.5 "LtoR" -0.5 "Large" 0.5 "26:35:44" 0.25 "expected" 1150 7.0475172213573 FALSE
"260" "s02" 4 4 36 45 54 0.1833333 "left" "mid" "right" "left" "Choose the square with the fewest dots" "Crisp" -0.5 "Verbal" 0.5 "LtoR" -0.5 "Small" -0.5 "36:45:54" 0.75 "expected" 1828 7.5109777520141 FALSE
"261" "s02" 5 3 24 15 6 0.4875 "left" "mid" "right" "left" "Choose a square with many dots" "Vague" 0.5 "Verbal" 0.5 "RtoL" 0.5 "Large" 0.5 "06:15:24" -0.75 "expected" 1441 7.27309259599952 FALSE
"262" "s02" 6 3 34 25 16 0.3123529 "right" "mid" "left" "left" "Choose a square with few dots" "Vague" 0.5 "Verbal" 0.5 "RtoL" 0.5 "Small" -0.5 "16:25:34" -0.25 "extreme" 1981 7.59135704669855 FALSE
"263" "s02" 7 4 26 35 44 0.2308442 "right" "mid" "left" "right" "Choose the square with the most dots" "Crisp" -0.5 "Verbal" 0.5 "LtoR" -0.5 "Large" 0.5 "26:35:44" 0.25 "expected" 1214 7.10167597161944 FALSE
"264" "s02" 8 4 54 45 36 0.1833333 "right" "mid" "left" "right" "Choose the square with the fewest dots" "Crisp" -0.5 "Verbal" 0.5 "RtoL" 0.5 "Small" -0.5 "36:45:54" 0.75 "expected" 1435 7.26892012819372 FALSE
"265" "s02" 9 3 6 15 24 0.4875 "right" "mid" "left" "right" "Choose a square with many dots" "Vague" 0.5 "Verbal" 0.5 "LtoR" -0.5 "Large" 0.5 "06:15:24" -0.75 "expected" 1627 7.39449310721904 FALSE
"266" "s02" 10 3 16 25 34 0.3123529 "right" "mid" "left" "right" "Choose a square with many dots" "Vague" 0.5 "Verbal" 0.5 "LtoR" -0.5 "Large" 0.5 "16:25:34" -0.25 "expected" 1032 6.93925394604151 FALSE
"267" "s02" 11 3 44 35 26 0.2308442 "right" "mid" "left" "left" "Choose a square with few dots" "Vague" 0.5 "Verbal" 0.5 "RtoL" 0.5 "Small" -0.5 "26:35:44" 0.25 "extreme" 769 6.64509096950564 FALSE
"268" "s02" 12 1 54 45 36 0.1833333 "left" "mid" "right" "left" "Choose a square with about 50 dots" "Vague" 0.5 "Numeric" -0.5 "RtoL" 0.5 "Large" 0.5 "36:45:54" 0.75 "expected" 1040 6.94697599213542 FALSE
"269" "s02" 13 3 6 15 24 0.4875 "left" "mid" "right" "left" "Choose a square with few dots" "Vague" 0.5 "Verbal" 0.5 "LtoR" -0.5 "Small" -0.5 "06:15:24" -0.75 "expected" 1353 7.21007962817079 FALSE
"270" "s02" 14 1 34 25 16 0.3123529 "left" "mid" "right" "mid" "Choose a square with about 30 dots" "Vague" 0.5 "Numeric" -0.5 "RtoL" 0.5 "Large" 0.5 "16:25:34" -0.25 "borderline" 1245 7.12689080889881 TRUE
"271" "s02" 15 4 26 35 44 0.2308442 "left" "mid" "right" "left" "Choose the square with the fewest dots" "Crisp" -0.5 "Verbal" 0.5 "LtoR" -0.5 "Small" -0.5 "26:35:44" 0.25 "expected" 1967 7.58426481838906 FALSE
"272" "s02" 16 1 54 45 36 0.1833333 "right" "mid" "left" "mid" "Choose a square with about 40 dots" "Vague" 0.5 "Numeric" -0.5 "RtoL" 0.5 "Small" -0.5 "36:45:54" 0.75 "borderline" 1677 7.42476176182321 TRUE
"273" "s02" 17 1 24 15 6 0.4875 "left" "mid" "right" "mid" "Choose a square with about 20 dots" "Vague" 0.5 "Numeric" -0.5 "RtoL" 0.5 "Large" 0.5 "06:15:24" -0.75 "borderline" 1620 7.39018142822643 TRUE
"274" "s02" 18 1 34 25 16 0.3123529 "right" "mid" "left" "right" "Choose a square with about 20 dots" "Vague" 0.5 "Numeric" -0.5 "RtoL" 0.5 "Small" -0.5 "16:25:34" -0.25 "expected" 1863 7.52994337060159 FALSE
"275" "s02" 19 2 26 35 44 0.2308442 "left" "mid" "right" "mid" "Choose the square with 26 dots" "Crisp" -0.5 "Numeric" -0.5 "LtoR" -0.5 "Small" -0.5 "26:35:44" 0.25 "borderline" 1337 7.19818357710194 TRUE
"276" "s02" 20 3 54 45 36 0.1833333 "left" "mid" "right" "mid" "Choose a square with many dots" "Vague" 0.5 "Verbal" 0.5 "RtoL" 0.5 "Large" 0.5 "36:45:54" 0.75 "borderline" 1406 7.24850407237061 TRUE
"277" "s02" 21 2 6 15 24 0.4875 "left" "mid" "right" "left" "Choose the square with 6 dots" "Crisp" -0.5 "Numeric" -0.5 "LtoR" -0.5 "Small" -0.5 "06:15:24" -0.75 "expected" 987 6.89467003943348 FALSE
"278" "s02" 22 4 16 25 34 0.3123529 "right" "mid" "left" "right" "Choose the square with the most dots" "Crisp" -0.5 "Verbal" 0.5 "LtoR" -0.5 "Large" 0.5 "16:25:34" -0.25 "expected" 1198 7.08840877867539 FALSE
"279" "s02" 23 2 44 35 26 0.2308442 "right" "mid" "left" "mid" "Choose the square with 26 dots" "Crisp" -0.5 "Numeric" -0.5 "RtoL" 0.5 "Small" -0.5 "26:35:44" 0.25 "borderline" 967 6.87419849545329 TRUE
"280" "s02" 24 3 54 45 36 0.1833333 "right" "mid" "left" "right" "Choose a square with few dots" "Vague" 0.5 "Verbal" 0.5 "RtoL" 0.5 "Small" -0.5 "36:45:54" 0.75 "expected" 1649 7.4079243225596 FALSE
"281" "s02" 25 4 24 15 6 0.4875 "right" "mid" "left" "mid" "Choose the square with the fewest dots" "Crisp" -0.5 "Verbal" 0.5 "RtoL" 0.5 "Small" -0.5 "06:15:24" -0.75 "borderline" 1588 7.37023064180708 TRUE
"282" "s02" 26 2 34 25 16 0.3123529 "left" "mid" "right" "mid" "Choose the square with 34 dots" "Crisp" -0.5 "Numeric" -0.5 "RtoL" 0.5 "Large" 0.5 "16:25:34" -0.25 "borderline" 943 6.84906628263346 TRUE
"283" "s02" 27 3 26 35 44 0.2308442 "right" "mid" "left" "mid" "Choose a square with many dots" "Vague" 0.5 "Verbal" 0.5 "LtoR" -0.5 "Large" 0.5 "26:35:44" 0.25 "borderline" 1038 6.94505106372583 TRUE
"284" "s02" 28 1 36 45 54 0.1833333 "left" "mid" "right" "left" "Choose a square with about 40 dots" "Vague" 0.5 "Numeric" -0.5 "LtoR" -0.5 "Small" -0.5 "36:45:54" 0.75 "expected" 1784 7.48661331313996 FALSE
"285" "s02" 29 4 6 15 24 0.4875 "left" "mid" "right" "left" "Choose the square with the fewest dots" "Crisp" -0.5 "Verbal" 0.5 "LtoR" -0.5 "Small" -0.5 "06:15:24" -0.75 "expected" 1221 7.1074254741107 FALSE
"286" "s02" 30 1 16 25 34 0.3123529 "left" "mid" "right" "left" "Choose a square with about 20 dots" "Vague" 0.5 "Numeric" -0.5 "LtoR" -0.5 "Small" -0.5 "16:25:34" -0.25 "expected" 1209 7.09754885061479 FALSE
"287" "s02" 31 1 26 35 44 0.2308442 "left" "mid" "right" "mid" "Choose a square with about 30 dots" "Vague" 0.5 "Numeric" -0.5 "LtoR" -0.5 "Small" -0.5 "26:35:44" 0.25 "borderline" 1666 7.41818082272679 TRUE
"288" "s02" 32 1 36 45 54 0.1833333 "right" "mid" "left" "right" "Choose a square with about 50 dots" "Vague" 0.5 "Numeric" -0.5 "LtoR" -0.5 "Large" 0.5 "36:45:54" 0.75 "expected" 911 6.81454289725996 FALSE
"289" "s02" 33 1 6 15 24 0.4875 "right" "mid" "left" "mid" "Choose a square with about 20 dots" "Vague" 0.5 "Numeric" -0.5 "LtoR" -0.5 "Large" 0.5 "06:15:24" -0.75 "borderline" 1938 7.56941179245071 TRUE
"290" "s02" 34 3 34 25 16 0.3123529 "left" "mid" "right" "mid" "Choose a square with many dots" "Vague" 0.5 "Verbal" 0.5 "RtoL" 0.5 "Large" 0.5 "16:25:34" -0.25 "borderline" 1761 7.47363710849621 TRUE
"291" "s02" 35 3 44 35 26 0.2308442 "left" "mid" "right" "mid" "Choose a square with many dots" "Vague" 0.5 "Verbal" 0.5 "RtoL" 0.5 "Large" 0.5 "26:35:44" 0.25 "borderline" 1900 7.54960916515453 TRUE
"292" "s02" 36 3 36 45 54 0.1833333 "left" "mid" "right" "left" "Choose a square with few dots" "Vague" 0.5 "Verbal" 0.5 "LtoR" -0.5 "Small" -0.5 "36:45:54" 0.75 "expected" 1753 7.46908388492123 FALSE
"293" "s02" 37 4 6 15 24 0.4875 "right" "mid" "left" "right" "Choose the square with the most dots" "Crisp" -0.5 "Verbal" 0.5 "LtoR" -0.5 "Large" 0.5 "06:15:24" -0.75 "expected" 745 6.61338421837956 FALSE
"294" "s02" 38 4 16 25 34 0.3123529 "left" "mid" "right" "left" "Choose the square with the fewest dots" "Crisp" -0.5 "Verbal" 0.5 "LtoR" -0.5 "Small" -0.5 "16:25:34" -0.25 "expected" 1886 7.5422134631934 FALSE
"295" "s02" 39 3 26 35 44 0.2308442 "left" "mid" "right" "left" "Choose a square with few dots" "Vague" 0.5 "Verbal" 0.5 "LtoR" -0.5 "Small" -0.5 "26:35:44" 0.25 "expected" 1326 7.18992217074581 FALSE
"296" "s02" 40 2 54 45 36 0.1833333 "left" "mid" "right" "right" "Choose the square with 54 dots" "Crisp" -0.5 "Numeric" -0.5 "RtoL" 0.5 "Large" 0.5 "36:45:54" 0.75 "extreme" 1208 7.09672137849476 FALSE
"297" "s02" 41 4 24 15 6 0.4875 "left" "mid" "right" "left" "Choose the square with the most dots" "Crisp" -0.5 "Verbal" 0.5 "RtoL" 0.5 "Large" 0.5 "06:15:24" -0.75 "expected" 1282 7.15617663748062 FALSE
"298" "s02" 42 1 16 25 34 0.3123529 "right" "mid" "left" "mid" "Choose a square with about 30 dots" "Vague" 0.5 "Numeric" -0.5 "LtoR" -0.5 "Large" 0.5 "16:25:34" -0.25 "borderline" 859 6.75576892198425 TRUE
"299" "s02" 43 1 44 35 26 0.2308442 "left" "mid" "right" "right" "Choose a square with about 40 dots" "Vague" 0.5 "Numeric" -0.5 "RtoL" 0.5 "Large" 0.5 "26:35:44" 0.25 "extreme" 1252 7.13249755166004 FALSE
"300" "s02" 44 2 36 45 54 0.1833333 "left" "mid" "right" "left" "Choose the square with 36 dots" "Crisp" -0.5 "Numeric" -0.5 "LtoR" -0.5 "Small" -0.5 "36:45:54" 0.75 "expected" 1426 7.26262860097424 FALSE
"301" "s02" 45 2 24 15 6 0.4875 "left" "mid" "right" "left" "Choose the square with 24 dots" "Crisp" -0.5 "Numeric" -0.5 "RtoL" 0.5 "Large" 0.5 "06:15:24" -0.75 "expected" 1591 7.37211802833779 FALSE
"302" "s02" 46 3 16 25 34 0.3123529 "left" "mid" "right" "left" "Choose a square with few dots" "Vague" 0.5 "Verbal" 0.5 "LtoR" -0.5 "Small" -0.5 "16:25:34" -0.25 "expected" 1375 7.22620901010067 FALSE
"303" "s02" 47 1 44 35 26 0.2308442 "right" "mid" "left" "mid" "Choose a square with about 30 dots" "Vague" 0.5 "Numeric" -0.5 "RtoL" 0.5 "Small" -0.5 "26:35:44" 0.25 "borderline" 1328 7.19142933003638 TRUE
"304" "s02" 48 4 36 45 54 0.1833333 "right" "mid" "left" "left" "Choose the square with the most dots" "Crisp" -0.5 "Verbal" 0.5 "LtoR" -0.5 "Large" 0.5 "36:45:54" 0.75 "extreme" 2045 7.6231530684769 FALSE
"305" "s02" 49 1 6 15 24 0.4875 "left" "mid" "right" "mid" "Choose a square with about 10 dots" "Vague" 0.5 "Numeric" -0.5 "LtoR" -0.5 "Small" -0.5 "06:15:24" -0.75 "borderline" 1562 7.35372233039963 TRUE
"306" "s02" 50 2 16 25 34 0.3123529 "right" "mid" "left" "mid" "Choose the square with 34 dots" "Crisp" -0.5 "Numeric" -0.5 "LtoR" -0.5 "Large" 0.5 "16:25:34" -0.25 "borderline" 1242 7.12447826249342 TRUE
"307" "s02" 51 4 44 35 26 0.2308442 "left" "mid" "right" "mid" "Choose the square with the most dots" "Crisp" -0.5 "Verbal" 0.5 "RtoL" 0.5 "Large" 0.5 "26:35:44" 0.25 "borderline" 2367 7.76937860951398 TRUE
"308" "s02" 52 3 36 45 54 0.1833333 "right" "mid" "left" "right" "Choose a square with many dots" "Vague" 0.5 "Verbal" 0.5 "LtoR" -0.5 "Large" 0.5 "36:45:54" 0.75 "expected" 1084 6.98841318199959 FALSE
"309" "s02" 53 2 24 15 6 0.4875 "right" "mid" "left" "right" "Choose the square with 6 dots" "Crisp" -0.5 "Numeric" -0.5 "RtoL" 0.5 "Small" -0.5 "06:15:24" -0.75 "expected" 1334 7.19593722647557 FALSE
"310" "s02" 54 4 34 25 16 0.3123529 "right" "mid" "left" "right" "Choose the square with the fewest dots" "Crisp" -0.5 "Verbal" 0.5 "RtoL" 0.5 "Small" -0.5 "16:25:34" -0.25 "expected" 1088 6.99209642741589 FALSE
"311" "s02" 55 4 44 35 26 0.2308442 "right" "mid" "left" "right" "Choose the square with the fewest dots" "Crisp" -0.5 "Verbal" 0.5 "RtoL" 0.5 "Small" -0.5 "26:35:44" 0.25 "expected" 1762 7.47420480649612 FALSE
"312" "s02" 56 4 54 45 36 0.1833333 "left" "mid" "right" "left" "Choose the square with the most dots" "Crisp" -0.5 "Verbal" 0.5 "RtoL" 0.5 "Large" 0.5 "36:45:54" 0.75 "expected" 1544 7.34213173058472 FALSE
"313" "s02" 57 2 6 15 24 0.4875 "right" "mid" "left" "right" "Choose the square with 24 dots" "Crisp" -0.5 "Numeric" -0.5 "LtoR" -0.5 "Large" 0.5 "06:15:24" -0.75 "expected" 2131 7.66434663209862 FALSE
"314" "s02" 58 4 34 25 16 0.3123529 "left" "mid" "right" "left" "Choose the square with the most dots" "Crisp" -0.5 "Verbal" 0.5 "RtoL" 0.5 "Large" 0.5 "16:25:34" -0.25 "expected" 1543 7.34148385236316 FALSE
"315" "s02" 59 2 44 35 26 0.2308442 "left" "mid" "right" "left" "Choose the square with 44 dots" "Crisp" -0.5 "Numeric" -0.5 "RtoL" 0.5 "Large" 0.5 "26:35:44" 0.25 "expected" 833 6.72503364216684 FALSE
"316" "s02" 60 2 54 45 36 0.1833333 "right" "mid" "left" "mid" "Choose the square with 36 dots" "Crisp" -0.5 "Numeric" -0.5 "RtoL" 0.5 "Small" -0.5 "36:45:54" 0.75 "borderline" 1088 6.99209642741589 TRUE
"317" "s02" 61 3 24 15 6 0.4875 "right" "mid" "left" "right" "Choose a square with few dots" "Vague" 0.5 "Verbal" 0.5 "RtoL" 0.5 "Small" -0.5 "06:15:24" -0.75 "expected" 885 6.78558764500793 FALSE
"318" "s02" 62 2 34 25 16 0.3123529 "right" "mid" "left" "right" "Choose the square with 16 dots" "Crisp" -0.5 "Numeric" -0.5 "RtoL" 0.5 "Small" -0.5 "16:25:34" -0.25 "expected" 1875 7.53636393840451 FALSE
"319" "s02" 63 1 26 35 44 0.2308442 "right" "mid" "left" "mid" "Choose a square with about 40 dots" "Vague" 0.5 "Numeric" -0.5 "LtoR" -0.5 "Large" 0.5 "26:35:44" 0.25 "borderline" 1788 7.48885295573346 TRUE
"320" "s02" 64 2 36 45 54 0.1833333 "right" "mid" "left" "right" "Choose the square with 54 dots" "Crisp" -0.5 "Numeric" -0.5 "LtoR" -0.5 "Large" 0.5 "36:45:54" 0.75 "expected" 1919 7.5595594960077 FALSE
"321" "s02" 65 2 24 15 6 0.4875 "left" "mid" "right" "left" "Choose the square with 24 dots" "Crisp" -0.5 "Numeric" -0.5 "RtoL" 0.5 "Large" 0.5 "06:15:24" -0.75 "expected" 5056 8.52833093582669 FALSE
"322" "s02" 66 2 34 25 16 0.3123529 "left" "mid" "right" "mid" "Choose the square with 34 dots" "Crisp" -0.5 "Numeric" -0.5 "RtoL" 0.5 "Large" 0.5 "16:25:34" -0.25 "borderline" 1777 7.48268182815465 TRUE
"323" "s02" 67 4 26 35 44 0.2308442 "right" "mid" "left" "right" "Choose the square with the most dots" "Crisp" -0.5 "Verbal" 0.5 "LtoR" -0.5 "Large" 0.5 "26:35:44" 0.25 "expected" 657 6.48768401848461 FALSE
"324" "s02" 68 4 36 45 54 0.1833333 "right" "mid" "left" "right" "Choose the square with the most dots" "Crisp" -0.5 "Verbal" 0.5 "LtoR" -0.5 "Large" 0.5 "36:45:54" 0.75 "expected" 1944 7.57250298502038 FALSE
"325" "s02" 69 4 6 15 24 0.4875 "right" "mid" "left" "right" "Choose the square with the most dots" "Crisp" -0.5 "Verbal" 0.5 "LtoR" -0.5 "Large" 0.5 "06:15:24" -0.75 "expected" 1443 7.27447955877387 FALSE
"326" "s02" 70 4 16 25 34 0.3123529 "left" "mid" "right" "left" "Choose the square with the fewest dots" "Crisp" -0.5 "Verbal" 0.5 "LtoR" -0.5 "Small" -0.5 "16:25:34" -0.25 "expected" 1506 7.31721240835984 FALSE
"327" "s02" 71 3 44 35 26 0.2308442 "right" "mid" "left" "right" "Choose a square with few dots" "Vague" 0.5 "Verbal" 0.5 "RtoL" 0.5 "Small" -0.5 "26:35:44" 0.25 "expected" 776 6.65415252018322 FALSE
"328" "s02" 72 4 54 45 36 0.1833333 "right" "mid" "left" "right" "Choose the square with the fewest dots" "Crisp" -0.5 "Verbal" 0.5 "RtoL" 0.5 "Small" -0.5 "36:45:54" 0.75 "expected" 1356 7.21229446850034 FALSE
"329" "s02" 73 2 6 15 24 0.4875 "right" "mid" "left" "mid" "Choose the square with 24 dots" "Crisp" -0.5 "Numeric" -0.5 "LtoR" -0.5 "Large" 0.5 "06:15:24" -0.75 "borderline" 11150 9.31919477688827 TRUE
"330" "s02" 74 1 16 25 34 0.3123529 "left" "mid" "right" "left" "Choose a square with about 20 dots" "Vague" 0.5 "Numeric" -0.5 "LtoR" -0.5 "Small" -0.5 "16:25:34" -0.25 "expected" 2902 7.97315543344413 FALSE
"331" "s02" 75 1 44 35 26 0.2308442 "right" "mid" "left" "right" "Choose a square with about 30 dots" "Vague" 0.5 "Numeric" -0.5 "RtoL" 0.5 "Small" -0.5 "26:35:44" 0.25 "expected" 1645 7.40549566319947 FALSE
"332" "s02" 76 3 54 45 36 0.1833333 "left" "mid" "right" "left" "Choose a square with many dots" "Vague" 0.5 "Verbal" 0.5 "RtoL" 0.5 "Large" 0.5 "36:45:54" 0.75 "expected" 1079 6.98378996525813 FALSE
"333" "s02" 77 1 6 15 24 0.4875 "right" "mid" "left" "mid" "Choose a square with about 20 dots" "Vague" 0.5 "Numeric" -0.5 "LtoR" -0.5 "Large" 0.5 "06:15:24" -0.75 "borderline" 1538 7.33823815006559 TRUE
"334" "s02" 78 3 34 25 16 0.3123529 "right" "mid" "left" "right" "Choose a square with few dots" "Vague" 0.5 "Verbal" 0.5 "RtoL" 0.5 "Small" -0.5 "16:25:34" -0.25 "expected" 2314 7.74673290775362 FALSE
"335" "s02" 79 1 26 35 44 0.2308442 "right" "mid" "left" "mid" "Choose a square with about 40 dots" "Vague" 0.5 "Numeric" -0.5 "LtoR" -0.5 "Large" 0.5 "26:35:44" 0.25 "borderline" 1353 7.21007962817079 TRUE
"336" "s02" 80 1 36 45 54 0.1833333 "right" "mid" "left" "right" "Choose a square with about 50 dots" "Vague" 0.5 "Numeric" -0.5 "LtoR" -0.5 "Large" 0.5 "36:45:54" 0.75 "expected" 2284 7.7336835707759 FALSE
"337" "s02" 81 4 24 15 6 0.4875 "left" "mid" "right" "left" "Choose the square with the most dots" "Crisp" -0.5 "Verbal" 0.5 "RtoL" 0.5 "Large" 0.5 "06:15:24" -0.75 "expected" 684 6.52795791762255 FALSE
"338" "s02" 82 1 16 25 34 0.3123529 "right" "mid" "left" "left" "Choose a square with about 30 dots" "Vague" 0.5 "Numeric" -0.5 "LtoR" -0.5 "Large" 0.5 "16:25:34" -0.25 "extreme" 2169 7.68202151082687 FALSE
"339" "s02" 83 3 26 35 44 0.2308442 "right" "mid" "left" "right" "Choose a square with many dots" "Vague" 0.5 "Verbal" 0.5 "LtoR" -0.5 "Large" 0.5 "26:35:44" 0.25 "expected" 1040 6.94697599213542 FALSE
"340" "s02" 84 2 54 45 36 0.1833333 "right" "mid" "left" "right" "Choose the square with 36 dots" "Crisp" -0.5 "Numeric" -0.5 "RtoL" 0.5 "Small" -0.5 "36:45:54" 0.75 "expected" 1065 6.97073007814353 FALSE
"341" "s02" 85 3 6 15 24 0.4875 "left" "mid" "right" "left" "Choose a square with few dots" "Vague" 0.5 "Verbal" 0.5 "LtoR" -0.5 "Small" -0.5 "06:15:24" -0.75 "expected" 875 6.77422388635761 FALSE
"342" "s02" 86 2 16 25 34 0.3123529 "left" "mid" "right" "mid" "Choose the square with 16 dots" "Crisp" -0.5 "Numeric" -0.5 "LtoR" -0.5 "Small" -0.5 "16:25:34" -0.25 "borderline" 5723 8.6522484224091 TRUE
"343" "s02" 87 3 44 35 26 0.2308442 "left" "mid" "right" "left" "Choose a square with many dots" "Vague" 0.5 "Verbal" 0.5 "RtoL" 0.5 "Large" 0.5 "26:35:44" 0.25 "expected" 1089 6.99301512293296 FALSE
"344" "s02" 88 3 36 45 54 0.1833333 "right" "mid" "left" "right" "Choose a square with many dots" "Vague" 0.5 "Verbal" 0.5 "LtoR" -0.5 "Large" 0.5 "36:45:54" 0.75 "expected" 1761 7.47363710849621 FALSE
"345" "s02" 89 1 6 15 24 0.4875 "left" "mid" "right" "mid" "Choose a square with about 10 dots" "Vague" 0.5 "Numeric" -0.5 "LtoR" -0.5 "Small" -0.5 "06:15:24" -0.75 "borderline" 2302 7.74153358928183 TRUE
"346" "s02" 90 2 16 25 34 0.3123529 "right" "mid" "left" "mid" "Choose the square with 34 dots" "Crisp" -0.5 "Numeric" -0.5 "LtoR" -0.5 "Large" 0.5 "16:25:34" -0.25 "borderline" 2708 7.90396563403217 TRUE
"347" "s02" 91 3 26 35 44 0.2308442 "left" "mid" "right" "left" "Choose a square with few dots" "Vague" 0.5 "Verbal" 0.5 "LtoR" -0.5 "Small" -0.5 "26:35:44" 0.25 "expected" 814 6.70196036600254 FALSE
"348" "s02" 92 4 36 45 54 0.1833333 "left" "mid" "right" "mid" "Choose the square with the fewest dots" "Crisp" -0.5 "Verbal" 0.5 "LtoR" -0.5 "Small" -0.5 "36:45:54" 0.75 "borderline" 4531 8.41869794466714 TRUE
"349" "s02" 93 3 6 15 24 0.4875 "right" "mid" "left" "right" "Choose a square with many dots" "Vague" 0.5 "Verbal" 0.5 "LtoR" -0.5 "Large" 0.5 "06:15:24" -0.75 "expected" 956 6.8627579130514 FALSE
"350" "s02" 94 4 34 25 16 0.3123529 "right" "mid" "left" "right" "Choose the square with the fewest dots" "Crisp" -0.5 "Verbal" 0.5 "RtoL" 0.5 "Small" -0.5 "16:25:34" -0.25 "expected" 929 6.83410873881384 FALSE
"351" "s02" 95 4 44 35 26 0.2308442 "left" "mid" "right" "left" "Choose the square with the most dots" "Crisp" -0.5 "Verbal" 0.5 "RtoL" 0.5 "Large" 0.5 "26:35:44" 0.25 "expected" 1718 7.4489161025442 FALSE
"352" "s02" 96 1 54 45 36 0.1833333 "left" "mid" "right" "left" "Choose a square with about 50 dots" "Vague" 0.5 "Numeric" -0.5 "RtoL" 0.5 "Large" 0.5 "36:45:54" 0.75 "expected" 1528 7.33171496972647 FALSE
"353" "s02" 97 1 24 15 6 0.4875 "right" "mid" "left" "mid" "Choose a square with about 10 dots" "Vague" 0.5 "Numeric" -0.5 "RtoL" 0.5 "Small" -0.5 "06:15:24" -0.75 "borderline" 1561 7.35308192051543 TRUE
"354" "s02" 98 1 34 25 16 0.3123529 "right" "mid" "left" "right" "Choose a square with about 20 dots" "Vague" 0.5 "Numeric" -0.5 "RtoL" 0.5 "Small" -0.5 "16:25:34" -0.25 "expected" 1821 7.50714107972761 FALSE
"355" "s02" 99 2 26 35 44 0.2308442 "right" "mid" "left" "mid" "Choose the square with 44 dots" "Crisp" -0.5 "Numeric" -0.5 "LtoR" -0.5 "Large" 0.5 "26:35:44" 0.25 "borderline" 1382 7.23128700432762 TRUE
"356" "s02" 100 3 36 45 54 0.1833333 "left" "mid" "right" "left" "Choose a square with few dots" "Vague" 0.5 "Verbal" 0.5 "LtoR" -0.5 "Small" -0.5 "36:45:54" 0.75 "expected" 2169 7.68202151082687 FALSE
"357" "s02" 101 2 24 15 6 0.4875 "right" "mid" "left" "right" "Choose the square with 6 dots" "Crisp" -0.5 "Numeric" -0.5 "RtoL" 0.5 "Small" -0.5 "06:15:24" -0.75 "expected" 1000 6.90775527898214 FALSE
"358" "s02" 102 1 34 25 16 0.3123529 "left" "mid" "right" "left" "Choose a square with about 30 dots" "Vague" 0.5 "Numeric" -0.5 "RtoL" 0.5 "Large" 0.5 "16:25:34" -0.25 "expected" 1342 7.20191631753163 FALSE
"359" "s02" 103 4 44 35 26 0.2308442 "right" "mid" "left" "right" "Choose the square with the fewest dots" "Crisp" -0.5 "Verbal" 0.5 "RtoL" 0.5 "Small" -0.5 "26:35:44" 0.25 "expected" 1392 7.23849684089437 FALSE
"360" "s02" 104 2 54 45 36 0.1833333 "left" "mid" "right" "left" "Choose the square with 54 dots" "Crisp" -0.5 "Numeric" -0.5 "RtoL" 0.5 "Large" 0.5 "36:45:54" 0.75 "expected" 2682 7.89431806384162 FALSE
"361" "s02" 105 3 24 15 6 0.4875 "left" "mid" "right" "left" "Choose a square with many dots" "Vague" 0.5 "Verbal" 0.5 "RtoL" 0.5 "Large" 0.5 "06:15:24" -0.75 "expected" 585 6.37161184723186 FALSE
"362" "s02" 106 3 34 25 16 0.3123529 "left" "mid" "right" "left" "Choose a square with many dots" "Vague" 0.5 "Verbal" 0.5 "RtoL" 0.5 "Large" 0.5 "16:25:34" -0.25 "expected" 1306 7.17472430983638 FALSE
"363" "s02" 107 2 44 35 26 0.2308442 "right" "mid" "left" "mid" "Choose the square with 26 dots" "Crisp" -0.5 "Numeric" -0.5 "RtoL" 0.5 "Small" -0.5 "26:35:44" 0.25 "borderline" 1030 6.93731408122368 TRUE
"364" "s02" 108 1 54 45 36 0.1833333 "right" "mid" "left" "right" "Choose a square with about 40 dots" "Vague" 0.5 "Numeric" -0.5 "RtoL" 0.5 "Small" -0.5 "36:45:54" 0.75 "expected" 1286 7.15929190479756 FALSE
"365" "s02" 109 3 24 15 6 0.4875 "right" "mid" "left" "right" "Choose a square with few dots" "Vague" 0.5 "Verbal" 0.5 "RtoL" 0.5 "Small" -0.5 "06:15:24" -0.75 "expected" 1767 7.4770384723197 FALSE
"366" "s02" 110 4 16 25 34 0.3123529 "right" "mid" "left" "right" "Choose the square with the most dots" "Crisp" -0.5 "Verbal" 0.5 "LtoR" -0.5 "Large" 0.5 "16:25:34" -0.25 "expected" 975 6.88243747099785 FALSE
"367" "s02" 111 2 26 35 44 0.2308442 "left" "mid" "right" "mid" "Choose the square with 26 dots" "Crisp" -0.5 "Numeric" -0.5 "LtoR" -0.5 "Small" -0.5 "26:35:44" 0.25 "borderline" 1444 7.27517231945277 TRUE
"368" "s02" 112 4 54 45 36 0.1833333 "left" "mid" "right" "left" "Choose the square with the most dots" "Crisp" -0.5 "Verbal" 0.5 "RtoL" 0.5 "Large" 0.5 "36:45:54" 0.75 "expected" 1554 7.34858753092759 FALSE
"369" "s02" 113 1 24 15 6 0.4875 "left" "mid" "right" "mid" "Choose a square with about 20 dots" "Vague" 0.5 "Numeric" -0.5 "RtoL" 0.5 "Large" 0.5 "06:15:24" -0.75 "borderline" 1157 7.05358572719368 TRUE
"370" "s02" 114 2 34 25 16 0.3123529 "right" "mid" "left" "right" "Choose the square with 16 dots" "Crisp" -0.5 "Numeric" -0.5 "RtoL" 0.5 "Small" -0.5 "16:25:34" -0.25 "expected" 1610 7.38398945797851 FALSE
"371" "s02" 115 1 44 35 26 0.2308442 "left" "mid" "right" "left" "Choose a square with about 40 dots" "Vague" 0.5 "Numeric" -0.5 "RtoL" 0.5 "Large" 0.5 "26:35:44" 0.25 "expected" 1337 7.19818357710194 FALSE
"372" "s02" 116 3 54 45 36 0.1833333 "right" "mid" "left" "left" "Choose a square with few dots" "Vague" 0.5 "Verbal" 0.5 "RtoL" 0.5 "Small" -0.5 "36:45:54" 0.75 "extreme" 1841 7.51806418123308 FALSE
"373" "s02" 117 4 6 15 24 0.4875 "left" "mid" "right" "left" "Choose the square with the fewest dots" "Crisp" -0.5 "Verbal" 0.5 "LtoR" -0.5 "Small" -0.5 "06:15:24" -0.75 "expected" 1896 7.54750168281497 FALSE
"374" "s02" 118 3 16 25 34 0.3123529 "left" "mid" "right" "right" "Choose a square with few dots" "Vague" 0.5 "Verbal" 0.5 "LtoR" -0.5 "Small" -0.5 "16:25:34" -0.25 "extreme" 1273 7.14913159855741 FALSE
"375" "s02" 119 1 26 35 44 0.2308442 "left" "mid" "right" "mid" "Choose a square with about 30 dots" "Vague" 0.5 "Numeric" -0.5 "LtoR" -0.5 "Small" -0.5 "26:35:44" 0.25 "borderline" 1135 7.0343879299155 TRUE
"376" "s02" 120 1 36 45 54 0.1833333 "left" "mid" "right" "left" "Choose a square with about 40 dots" "Vague" 0.5 "Numeric" -0.5 "LtoR" -0.5 "Small" -0.5 "36:45:54" 0.75 "expected" 1291 7.16317239084664 FALSE
"377" "s02" 121 4 24 15 6 0.4875 "right" "mid" "left" "right" "Choose the square with the fewest dots" "Crisp" -0.5 "Verbal" 0.5 "RtoL" 0.5 "Small" -0.5 "06:15:24" -0.75 "expected" 1143 7.04141166379481 FALSE
"378" "s02" 122 4 34 25 16 0.3123529 "left" "mid" "right" "left" "Choose the square with the most dots" "Crisp" -0.5 "Verbal" 0.5 "RtoL" 0.5 "Large" 0.5 "16:25:34" -0.25 "expected" 760 6.63331843328038 FALSE
"379" "s02" 123 2 44 35 26 0.2308442 "left" "mid" "right" "left" "Choose the square with 44 dots" "Crisp" -0.5 "Numeric" -0.5 "RtoL" 0.5 "Large" 0.5 "26:35:44" 0.25 "expected" 2446 7.80220931624712 FALSE
"380" "s02" 124 2 36 45 54 0.1833333 "right" "mid" "left" "right" "Choose the square with 54 dots" "Crisp" -0.5 "Numeric" -0.5 "LtoR" -0.5 "Large" 0.5 "36:45:54" 0.75 "expected" 655 6.48463523563525 FALSE
"381" "s02" 125 2 6 15 24 0.4875 "left" "mid" "right" "left" "Choose the square with 6 dots" "Crisp" -0.5 "Numeric" -0.5 "LtoR" -0.5 "Small" -0.5 "06:15:24" -0.75 "expected" 1558 7.35115822643069 FALSE
"382" "s02" 126 3 16 25 34 0.3123529 "right" "mid" "left" "right" "Choose a square with many dots" "Vague" 0.5 "Verbal" 0.5 "LtoR" -0.5 "Large" 0.5 "16:25:34" -0.25 "expected" 1048 6.95463886488099 FALSE
"383" "s02" 127 4 26 35 44 0.2308442 "left" "mid" "right" "left" "Choose the square with the fewest dots" "Crisp" -0.5 "Verbal" 0.5 "LtoR" -0.5 "Small" -0.5 "26:35:44" 0.25 "expected" 1380 7.22983877815125 FALSE
"384" "s02" 128 2 36 45 54 0.1833333 "left" "mid" "right" "left" "Choose the square with 36 dots" "Crisp" -0.5 "Numeric" -0.5 "LtoR" -0.5 "Small" -0.5 "36:45:54" 0.75 "expected" 1317 7.18311170174328 FALSE
"385" "s02" 129 1 24 15 6 0.4875 "right" "mid" "left" "mid" "Choose a square with about 10 dots" "Vague" 0.5 "Numeric" -0.5 "RtoL" 0.5 "Small" -0.5 "06:15:24" -0.75 "borderline" 710 6.56526497003536 TRUE
"386" "s02" 130 1 34 25 16 0.3123529 "right" "mid" "left" "right" "Choose a square with about 20 dots" "Vague" 0.5 "Numeric" -0.5 "RtoL" 0.5 "Small" -0.5 "16:25:34" -0.25 "expected" 753 6.62406522779989 FALSE
"387" "s02" 131 3 44 35 26 0.2308442 "left" "mid" "right" "left" "Choose a square with many dots" "Vague" 0.5 "Verbal" 0.5 "RtoL" 0.5 "Large" 0.5 "26:35:44" 0.25 "expected" 450 6.10924758276437 FALSE
"388" "s02" 132 1 36 45 54 0.1833333 "right" "mid" "left" "mid" "Choose a square with about 50 dots" "Vague" 0.5 "Numeric" -0.5 "LtoR" -0.5 "Large" 0.5 "36:45:54" 0.75 "borderline" 907 6.81014245011514 TRUE
"389" "s02" 133 2 24 15 6 0.4875 "right" "mid" "left" "right" "Choose the square with 6 dots" "Crisp" -0.5 "Numeric" -0.5 "RtoL" 0.5 "Small" -0.5 "06:15:24" -0.75 "expected" 713 6.5694814204143 FALSE
"390" "s02" 134 3 34 25 16 0.3123529 "left" "mid" "right" "left" "Choose a square with many dots" "Vague" 0.5 "Verbal" 0.5 "RtoL" 0.5 "Large" 0.5 "16:25:34" -0.25 "expected" 574 6.35262939631957 FALSE
"391" "s02" 135 3 26 35 44 0.2308442 "left" "mid" "right" "left" "Choose a square with few dots" "Vague" 0.5 "Verbal" 0.5 "LtoR" -0.5 "Small" -0.5 "26:35:44" 0.25 "expected" 1150 7.0475172213573 FALSE
"392" "s02" 136 3 36 45 54 0.1833333 "right" "mid" "left" "right" "Choose a square with many dots" "Vague" 0.5 "Verbal" 0.5 "LtoR" -0.5 "Large" 0.5 "36:45:54" 0.75 "expected" 621 6.43133108193348 FALSE
"393" "s02" 137 4 24 15 6 0.4875 "right" "mid" "left" "mid" "Choose the square with the fewest dots" "Crisp" -0.5 "Verbal" 0.5 "RtoL" 0.5 "Small" -0.5 "06:15:24" -0.75 "borderline" 876 6.77536609093639 TRUE
"394" "s02" 138 4 34 25 16 0.3123529 "right" "mid" "left" "right" "Choose the square with the fewest dots" "Crisp" -0.5 "Verbal" 0.5 "RtoL" 0.5 "Small" -0.5 "16:25:34" -0.25 "expected" 1821 7.50714107972761 FALSE
"395" "s02" 139 4 44 35 26 0.2308442 "left" "mid" "right" "left" "Choose the square with the most dots" "Crisp" -0.5 "Verbal" 0.5 "RtoL" 0.5 "Large" 0.5 "26:35:44" 0.25 "expected" 1850 7.52294091807237 FALSE
"396" "s02" 140 3 54 45 36 0.1833333 "right" "mid" "left" "mid" "Choose a square with few dots" "Vague" 0.5 "Verbal" 0.5 "RtoL" 0.5 "Small" -0.5 "36:45:54" 0.75 "borderline" 1488 7.30518821539304 TRUE
"397" "s02" 141 3 24 15 6 0.4875 "left" "mid" "right" "left" "Choose a square with many dots" "Vague" 0.5 "Verbal" 0.5 "RtoL" 0.5 "Large" 0.5 "06:15:24" -0.75 "expected" 1512 7.32118855673948 FALSE
"398" "s02" 142 3 34 25 16 0.3123529 "right" "mid" "left" "right" "Choose a square with few dots" "Vague" 0.5 "Verbal" 0.5 "RtoL" 0.5 "Small" -0.5 "16:25:34" -0.25 "expected" 1093 6.99668148817654 FALSE
"399" "s02" 143 2 26 35 44 0.2308442 "left" "mid" "right" "left" "Choose the square with 26 dots" "Crisp" -0.5 "Numeric" -0.5 "LtoR" -0.5 "Small" -0.5 "26:35:44" 0.25 "expected" 1277 7.15226885603254 FALSE
"400" "s02" 144 2 36 45 54 0.1833333 "right" "mid" "left" "right" "Choose the square with 54 dots" "Crisp" -0.5 "Numeric" -0.5 "LtoR" -0.5 "Large" 0.5 "36:45:54" 0.75 "expected" 1531 7.33367639565768 FALSE
"401" "s02" 145 3 6 15 24 0.4875 "left" "mid" "right" "left" "Choose a square with few dots" "Vague" 0.5 "Verbal" 0.5 "LtoR" -0.5 "Small" -0.5 "06:15:24" -0.75 "expected" 1238 7.12125245324454 FALSE
"402" "s02" 146 4 16 25 34 0.3123529 "right" "mid" "left" "mid" "Choose the square with the most dots" "Crisp" -0.5 "Verbal" 0.5 "LtoR" -0.5 "Large" 0.5 "16:25:34" -0.25 "borderline" 1203 7.09257371597468 TRUE
"403" "s02" 147 1 44 35 26 0.2308442 "left" "mid" "right" "right" "Choose a square with about 40 dots" "Vague" 0.5 "Numeric" -0.5 "RtoL" 0.5 "Large" 0.5 "26:35:44" 0.25 "extreme" 1590 7.37148929521428 FALSE
"404" "s02" 148 1 54 45 36 0.1833333 "left" "mid" "right" "mid" "Choose a square with about 50 dots" "Vague" 0.5 "Numeric" -0.5 "RtoL" 0.5 "Large" 0.5 "36:45:54" 0.75 "borderline" 841 6.73459165997295 TRUE
"405" "s02" 149 2 24 15 6 0.4875 "left" "mid" "right" "left" "Choose the square with 24 dots" "Crisp" -0.5 "Numeric" -0.5 "RtoL" 0.5 "Large" 0.5 "06:15:24" -0.75 "expected" 1306 7.17472430983638 FALSE
"406" "s02" 150 4 16 25 34 0.3123529 "left" "mid" "right" "left" "Choose the square with the fewest dots" "Crisp" -0.5 "Verbal" 0.5 "LtoR" -0.5 "Small" -0.5 "16:25:34" -0.25 "expected" 982 6.88959130835447 FALSE
"407" "s02" 151 2 44 35 26 0.2308442 "right" "mid" "left" "mid" "Choose the square with 26 dots" "Crisp" -0.5 "Numeric" -0.5 "RtoL" 0.5 "Small" -0.5 "26:35:44" 0.25 "borderline" 910 6.8134445995109 TRUE
"408" "s02" 152 4 54 45 36 0.1833333 "left" "mid" "right" "left" "Choose the square with the most dots" "Crisp" -0.5 "Verbal" 0.5 "RtoL" 0.5 "Large" 0.5 "36:45:54" 0.75 "expected" 790 6.67203294546107 FALSE
"409" "s02" 153 1 6 15 24 0.4875 "right" "mid" "left" "right" "Choose a square with about 20 dots" "Vague" 0.5 "Numeric" -0.5 "LtoR" -0.5 "Large" 0.5 "06:15:24" -0.75 "expected" 1696 7.43602781635185 FALSE
"410" "s02" 154 1 16 25 34 0.3123529 "left" "mid" "right" "left" "Choose a square with about 20 dots" "Vague" 0.5 "Numeric" -0.5 "LtoR" -0.5 "Small" -0.5 "16:25:34" -0.25 "expected" 1819 7.50604217851812 FALSE
"411" "s02" 155 3 44 35 26 0.2308442 "right" "mid" "left" "right" "Choose a square with few dots" "Vague" 0.5 "Verbal" 0.5 "RtoL" 0.5 "Small" -0.5 "26:35:44" 0.25 "expected" 697 6.54678541076052 FALSE
"412" "s02" 156 1 36 45 54 0.1833333 "left" "mid" "right" "left" "Choose a square with about 40 dots" "Vague" 0.5 "Numeric" -0.5 "LtoR" -0.5 "Small" -0.5 "36:45:54" 0.75 "expected" 819 6.70808408385307 FALSE
"413" "s02" 157 1 6 15 24 0.4875 "left" "mid" "right" "mid" "Choose a square with about 10 dots" "Vague" 0.5 "Numeric" -0.5 "LtoR" -0.5 "Small" -0.5 "06:15:24" -0.75 "borderline" 1346 7.20489251020467 TRUE
"414" "s02" 158 2 16 25 34 0.3123529 "left" "mid" "right" "mid" "Choose the square with 16 dots" "Crisp" -0.5 "Numeric" -0.5 "LtoR" -0.5 "Small" -0.5 "16:25:34" -0.25 "borderline" 1673 7.42237370098682 TRUE
"415" "s02" 159 4 26 35 44 0.2308442 "right" "mid" "left" "left" "Choose the square with the most dots" "Crisp" -0.5 "Verbal" 0.5 "LtoR" -0.5 "Large" 0.5 "26:35:44" 0.25 "extreme" 2824 7.94590959861313 FALSE
"416" "s02" 160 3 54 45 36 0.1833333 "left" "mid" "right" "right" "Choose a square with many dots" "Vague" 0.5 "Verbal" 0.5 "RtoL" 0.5 "Large" 0.5 "36:45:54" 0.75 "extreme" 1659 7.41397029019044 FALSE
"417" "s02" 161 1 24 15 6 0.4875 "left" "mid" "right" "left" "Choose a square with about 20 dots" "Vague" 0.5 "Numeric" -0.5 "RtoL" 0.5 "Large" 0.5 "06:15:24" -0.75 "expected" 1058 6.96413561241824 FALSE
"418" "s02" 162 2 16 25 34 0.3123529 "right" "mid" "left" "mid" "Choose the square with 34 dots" "Crisp" -0.5 "Numeric" -0.5 "LtoR" -0.5 "Large" 0.5 "16:25:34" -0.25 "borderline" 972 6.87935580446044 TRUE
"419" "s02" 163 1 26 35 44 0.2308442 "left" "mid" "right" "mid" "Choose a square with about 30 dots" "Vague" 0.5 "Numeric" -0.5 "LtoR" -0.5 "Small" -0.5 "26:35:44" 0.25 "borderline" 1912 7.55590509361135 TRUE
"420" "s02" 164 2 36 45 54 0.1833333 "left" "mid" "right" "left" "Choose the square with 36 dots" "Crisp" -0.5 "Numeric" -0.5 "LtoR" -0.5 "Small" -0.5 "36:45:54" 0.75 "expected" 1525 7.32974968904151 FALSE
"421" "s02" 165 4 6 15 24 0.4875 "left" "mid" "right" "left" "Choose the square with the fewest dots" "Crisp" -0.5 "Verbal" 0.5 "LtoR" -0.5 "Small" -0.5 "06:15:24" -0.75 "expected" 973 6.880384082186 FALSE
"422" "s02" 166 2 34 25 16 0.3123529 "right" "mid" "left" "right" "Choose the square with 16 dots" "Crisp" -0.5 "Numeric" -0.5 "RtoL" 0.5 "Small" -0.5 "16:25:34" -0.25 "expected" 1111 7.01301578963963 FALSE
"423" "s02" 167 2 44 35 26 0.2308442 "left" "mid" "right" "mid" "Choose the square with 44 dots" "Crisp" -0.5 "Numeric" -0.5 "RtoL" 0.5 "Large" 0.5 "26:35:44" 0.25 "borderline" 1777 7.48268182815465 TRUE
"424" "s02" 168 4 54 45 36 0.1833333 "right" "mid" "left" "left" "Choose the square with the fewest dots" "Crisp" -0.5 "Verbal" 0.5 "RtoL" 0.5 "Small" -0.5 "36:45:54" 0.75 "extreme" 2179 7.68662133494462 FALSE
"425" "s02" 169 3 24 15 6 0.4875 "right" "mid" "left" "right" "Choose a square with few dots" "Vague" 0.5 "Verbal" 0.5 "RtoL" 0.5 "Small" -0.5 "06:15:24" -0.75 "expected" 837 6.72982407048948 FALSE
"426" "s02" 170 1 34 25 16 0.3123529 "left" "mid" "right" "mid" "Choose a square with about 30 dots" "Vague" 0.5 "Numeric" -0.5 "RtoL" 0.5 "Large" 0.5 "16:25:34" -0.25 "borderline" 2075 7.6377164326648 TRUE
"427" "s02" 171 1 26 35 44 0.2308442 "right" "mid" "left" "mid" "Choose a square with about 40 dots" "Vague" 0.5 "Numeric" -0.5 "LtoR" -0.5 "Large" 0.5 "26:35:44" 0.25 "borderline" 1401 7.24494154633701 TRUE
"428" "s02" 172 4 36 45 54 0.1833333 "left" "mid" "right" "left" "Choose the square with the fewest dots" "Crisp" -0.5 "Verbal" 0.5 "LtoR" -0.5 "Small" -0.5 "36:45:54" 0.75 "expected" 1300 7.17011954344963 FALSE
"429" "s02" 173 4 6 15 24 0.4875 "right" "mid" "left" "right" "Choose the square with the most dots" "Crisp" -0.5 "Verbal" 0.5 "LtoR" -0.5 "Large" 0.5 "06:15:24" -0.75 "expected" 1562 7.35372233039963 FALSE
"430" "s02" 174 4 34 25 16 0.3123529 "left" "mid" "right" "left" "Choose the square with the most dots" "Crisp" -0.5 "Verbal" 0.5 "RtoL" 0.5 "Large" 0.5 "16:25:34" -0.25 "expected" 1781 7.48493028328966 FALSE
"431" "s02" 175 3 26 35 44 0.2308442 "right" "mid" "left" "mid" "Choose a square with many dots" "Vague" 0.5 "Verbal" 0.5 "LtoR" -0.5 "Large" 0.5 "26:35:44" 0.25 "borderline" 1823 7.50823877467866 TRUE
"432" "s02" 176 2 54 45 36 0.1833333 "left" "mid" "right" "left" "Choose the square with 54 dots" "Crisp" -0.5 "Numeric" -0.5 "RtoL" 0.5 "Large" 0.5 "36:45:54" 0.75 "expected" 1131 7.03085747611612 FALSE
"433" "s02" 177 4 24 15 6 0.4875 "left" "mid" "right" "left" "Choose the square with the most dots" "Crisp" -0.5 "Verbal" 0.5 "RtoL" 0.5 "Large" 0.5 "06:15:24" -0.75 "expected" 1122 7.02286808608264 FALSE
"434" "s02" 178 1 16 25 34 0.3123529 "right" "mid" "left" "mid" "Choose a square with about 30 dots" "Vague" 0.5 "Numeric" -0.5 "LtoR" -0.5 "Large" 0.5 "16:25:34" -0.25 "borderline" 3307 8.10379671298179 TRUE
"435" "s02" 179 4 44 35 26 0.2308442 "right" "mid" "left" "right" "Choose the square with the fewest dots" "Crisp" -0.5 "Verbal" 0.5 "RtoL" 0.5 "Small" -0.5 "26:35:44" 0.25 "expected" 955 6.86171134048073 FALSE
"436" "s02" 180 1 54 45 36 0.1833333 "right" "mid" "left" "left" "Choose a square with about 40 dots" "Vague" 0.5 "Numeric" -0.5 "RtoL" 0.5 "Small" -0.5 "36:45:54" 0.75 "extreme" 892 6.79346613258001 FALSE
"437" "s02" 181 3 6 15 24 0.4875 "right" "mid" "left" "right" "Choose a square with many dots" "Vague" 0.5 "Verbal" 0.5 "LtoR" -0.5 "Large" 0.5 "06:15:24" -0.75 "expected" 1681 7.42714413340862 FALSE
"438" "s02" 182 3 16 25 34 0.3123529 "left" "mid" "right" "left" "Choose a square with few dots" "Vague" 0.5 "Verbal" 0.5 "LtoR" -0.5 "Small" -0.5 "16:25:34" -0.25 "expected" 1158 7.05444965813294 FALSE
"439" "s02" 183 4 26 35 44 0.2308442 "left" "mid" "right" "left" "Choose the square with the fewest dots" "Crisp" -0.5 "Verbal" 0.5 "LtoR" -0.5 "Small" -0.5 "26:35:44" 0.25 "expected" 1240 7.12286665859908 FALSE
"440" "s02" 184 4 36 45 54 0.1833333 "right" "mid" "left" "right" "Choose the square with the most dots" "Crisp" -0.5 "Verbal" 0.5 "LtoR" -0.5 "Large" 0.5 "36:45:54" 0.75 "expected" 1346 7.20489251020467 FALSE
"441" "s02" 185 2 6 15 24 0.4875 "left" "mid" "right" "left" "Choose the square with 6 dots" "Crisp" -0.5 "Numeric" -0.5 "LtoR" -0.5 "Small" -0.5 "06:15:24" -0.75 "expected" 1170 7.0647590277918 FALSE
"442" "s02" 186 2 34 25 16 0.3123529 "left" "mid" "right" "mid" "Choose the square with 34 dots" "Crisp" -0.5 "Numeric" -0.5 "RtoL" 0.5 "Large" 0.5 "16:25:34" -0.25 "borderline" 1727 7.45414107814668 TRUE
"443" "s02" 187 2 26 35 44 0.2308442 "right" "mid" "left" "right" "Choose the square with 44 dots" "Crisp" -0.5 "Numeric" -0.5 "LtoR" -0.5 "Large" 0.5 "26:35:44" 0.25 "expected" 1927 7.56371966841437 FALSE
"444" "s02" 188 3 36 45 54 0.1833333 "left" "mid" "right" "left" "Choose a square with few dots" "Vague" 0.5 "Verbal" 0.5 "LtoR" -0.5 "Small" -0.5 "36:45:54" 0.75 "expected" 924 6.82871207164168 FALSE
"445" "s02" 189 2 6 15 24 0.4875 "right" "mid" "left" "mid" "Choose the square with 24 dots" "Crisp" -0.5 "Numeric" -0.5 "LtoR" -0.5 "Large" 0.5 "06:15:24" -0.75 "borderline" 1231 7.11558212618445 TRUE
"446" "s02" 190 3 16 25 34 0.3123529 "right" "mid" "left" "right" "Choose a square with many dots" "Vague" 0.5 "Verbal" 0.5 "LtoR" -0.5 "Large" 0.5 "16:25:34" -0.25 "expected" 2030 7.61579107203583 FALSE
"447" "s02" 191 1 44 35 26 0.2308442 "right" "mid" "left" "mid" "Choose a square with about 30 dots" "Vague" 0.5 "Numeric" -0.5 "RtoL" 0.5 "Small" -0.5 "26:35:44" 0.25 "borderline" 889 6.7900972355139 TRUE
"448" "s02" 192 2 54 45 36 0.1833333 "right" "mid" "left" "right" "Choose the square with 36 dots" "Crisp" -0.5 "Numeric" -0.5 "RtoL" 0.5 "Small" -0.5 "36:45:54" 0.75 "expected" 2383 7.77611547709874 FALSE
"449" "s02" 193 2 6 15 24 0.4875 "right" "mid" "left" "mid" "Choose the square with 24 dots" "Crisp" -0.5 "Numeric" -0.5 "LtoR" -0.5 "Large" 0.5 "06:15:24" -0.75 "borderline" 727 6.58892647753352 TRUE
"450" "s02" 194 3 16 25 34 0.3123529 "left" "mid" "right" "mid" "Choose a square with few dots" "Vague" 0.5 "Verbal" 0.5 "LtoR" -0.5 "Small" -0.5 "16:25:34" -0.25 "borderline" 1334 7.19593722647557 TRUE
"451" "s02" 195 4 44 35 26 0.2308442 "right" "mid" "left" "right" "Choose the square with the fewest dots" "Crisp" -0.5 "Verbal" 0.5 "RtoL" 0.5 "Small" -0.5 "26:35:44" 0.25 "expected" 995 6.90274273715859 FALSE
"452" "s02" 196 2 54 45 36 0.1833333 "left" "mid" "right" "mid" "Choose the square with 54 dots" "Crisp" -0.5 "Numeric" -0.5 "RtoL" 0.5 "Large" 0.5 "36:45:54" 0.75 "borderline" 1684 7.42892719480227 TRUE
"453" "s02" 197 2 6 15 24 0.4875 "left" "mid" "right" "left" "Choose the square with 6 dots" "Crisp" -0.5 "Numeric" -0.5 "LtoR" -0.5 "Small" -0.5 "06:15:24" -0.75 "expected" 734 6.59850902861452 FALSE
"454" "s02" 198 3 34 25 16 0.3123529 "right" "mid" "left" "right" "Choose a square with few dots" "Vague" 0.5 "Verbal" 0.5 "RtoL" 0.5 "Small" -0.5 "16:25:34" -0.25 "expected" 754 6.62539236800796 FALSE
"455" "s02" 199 1 44 35 26 0.2308442 "left" "mid" "right" "mid" "Choose a square with about 40 dots" "Vague" 0.5 "Numeric" -0.5 "RtoL" 0.5 "Large" 0.5 "26:35:44" 0.25 "borderline" 1629 7.39572160860205 TRUE
"456" "s02" 200 2 36 45 54 0.1833333 "right" "mid" "left" "mid" "Choose the square with 54 dots" "Crisp" -0.5 "Numeric" -0.5 "LtoR" -0.5 "Large" 0.5 "36:45:54" 0.75 "borderline" 1583 7.36707705988101 TRUE
"457" "s02" 201 2 24 15 6 0.4875 "right" "mid" "left" "right" "Choose the square with 6 dots" "Crisp" -0.5 "Numeric" -0.5 "RtoL" 0.5 "Small" -0.5 "06:15:24" -0.75 "expected" 811 6.69826805411541 FALSE
"458" "s02" 202 2 34 25 16 0.3123529 "left" "mid" "right" "mid" "Choose the square with 34 dots" "Crisp" -0.5 "Numeric" -0.5 "RtoL" 0.5 "Large" 0.5 "16:25:34" -0.25 "borderline" 1547 7.34407285057307 TRUE
"459" "s02" 203 3 44 35 26 0.2308442 "left" "mid" "right" "left" "Choose a square with many dots" "Vague" 0.5 "Verbal" 0.5 "RtoL" 0.5 "Large" 0.5 "26:35:44" 0.25 "expected" 1128 7.028201432058 FALSE
"460" "s02" 204 1 54 45 36 0.1833333 "right" "mid" "left" "left" "Choose a square with about 40 dots" "Vague" 0.5 "Numeric" -0.5 "RtoL" 0.5 "Small" -0.5 "36:45:54" 0.75 "extreme" 1158 7.05444965813294 FALSE
"461" "s02" 205 1 24 15 6 0.4875 "right" "mid" "left" "mid" "Choose a square with about 10 dots" "Vague" 0.5 "Numeric" -0.5 "RtoL" 0.5 "Small" -0.5 "06:15:24" -0.75 "borderline" 1119 7.02019070831193 TRUE
"462" "s02" 206 1 16 25 34 0.3123529 "right" "mid" "left" "mid" "Choose a square with about 30 dots" "Vague" 0.5 "Numeric" -0.5 "LtoR" -0.5 "Large" 0.5 "16:25:34" -0.25 "borderline" 1068 6.97354301952014 TRUE
"463" "s02" 207 1 44 35 26 0.2308442 "right" "mid" "left" "right" "Choose a square with about 30 dots" "Vague" 0.5 "Numeric" -0.5 "RtoL" 0.5 "Small" -0.5 "26:35:44" 0.25 "expected" 1367 7.22037383672395 FALSE
"464" "s02" 208 2 36 45 54 0.1833333 "left" "mid" "right" "left" "Choose the square with 36 dots" "Crisp" -0.5 "Numeric" -0.5 "LtoR" -0.5 "Small" -0.5 "36:45:54" 0.75 "expected" 1146 7.04403289727469 FALSE
"465" "s02" 209 3 24 15 6 0.4875 "right" "mid" "left" "right" "Choose a square with few dots" "Vague" 0.5 "Verbal" 0.5 "RtoL" 0.5 "Small" -0.5 "06:15:24" -0.75 "expected" 1273 7.14913159855741 FALSE
"466" "s02" 210 3 34 25 16 0.3123529 "left" "mid" "right" "left" "Choose a square with many dots" "Vague" 0.5 "Verbal" 0.5 "RtoL" 0.5 "Large" 0.5 "16:25:34" -0.25 "expected" 1863 7.52994337060159 FALSE
"467" "s02" 211 4 44 35 26 0.2308442 "left" "mid" "right" "left" "Choose the square with the most dots" "Crisp" -0.5 "Verbal" 0.5 "RtoL" 0.5 "Large" 0.5 "26:35:44" 0.25 "expected" 1599 7.37713371283395 FALSE
"468" "s02" 212 3 54 45 36 0.1833333 "right" "mid" "left" "right" "Choose a square with few dots" "Vague" 0.5 "Verbal" 0.5 "RtoL" 0.5 "Small" -0.5 "36:45:54" 0.75 "expected" 1318 7.18387071506245 FALSE
"469" "s02" 213 3 6 15 24 0.4875 "left" "mid" "right" "left" "Choose a square with few dots" "Vague" 0.5 "Verbal" 0.5 "LtoR" -0.5 "Small" -0.5 "06:15:24" -0.75 "expected" 1358 7.21376830811864 FALSE
"470" "s02" 214 1 16 25 34 0.3123529 "left" "mid" "right" "left" "Choose a square with about 20 dots" "Vague" 0.5 "Numeric" -0.5 "LtoR" -0.5 "Small" -0.5 "16:25:34" -0.25 "expected" 1461 7.2868764117507 FALSE
"471" "s02" 215 3 26 35 44 0.2308442 "left" "mid" "right" "right" "Choose a square with few dots" "Vague" 0.5 "Verbal" 0.5 "LtoR" -0.5 "Small" -0.5 "26:35:44" 0.25 "extreme" 2857 7.95752740223077 FALSE
"472" "s02" 216 1 54 45 36 0.1833333 "left" "mid" "right" "left" "Choose a square with about 50 dots" "Vague" 0.5 "Numeric" -0.5 "RtoL" 0.5 "Large" 0.5 "36:45:54" 0.75 "expected" 1092 6.99576615630485 FALSE
"473" "s02" 217 1 24 15 6 0.4875 "left" "mid" "right" "mid" "Choose a square with about 20 dots" "Vague" 0.5 "Numeric" -0.5 "RtoL" 0.5 "Large" 0.5 "06:15:24" -0.75 "borderline" 679 6.5206211275587 TRUE
"474" "s02" 218 2 16 25 34 0.3123529 "left" "mid" "right" "left" "Choose the square with 16 dots" "Crisp" -0.5 "Numeric" -0.5 "LtoR" -0.5 "Small" -0.5 "16:25:34" -0.25 "expected" 1407 7.24921505711439 FALSE
"475" "s02" 219 1 26 35 44 0.2308442 "left" "mid" "right" "left" "Choose a square with about 30 dots" "Vague" 0.5 "Numeric" -0.5 "LtoR" -0.5 "Small" -0.5 "26:35:44" 0.25 "expected" 1203 7.09257371597468 FALSE
"476" "s02" 220 3 36 45 54 0.1833333 "left" "mid" "right" "left" "Choose a square with few dots" "Vague" 0.5 "Verbal" 0.5 "LtoR" -0.5 "Small" -0.5 "36:45:54" 0.75 "expected" 1542 7.34083555412327 FALSE
"477" "s02" 221 2 24 15 6 0.4875 "left" "mid" "right" "left" "Choose the square with 24 dots" "Crisp" -0.5 "Numeric" -0.5 "RtoL" 0.5 "Large" 0.5 "06:15:24" -0.75 "expected" 1429 7.26473017792987 FALSE
"478" "s02" 222 2 34 25 16 0.3123529 "right" "mid" "left" "mid" "Choose the square with 16 dots" "Crisp" -0.5 "Numeric" -0.5 "RtoL" 0.5 "Small" -0.5 "16:25:34" -0.25 "borderline" 1201 7.09090982207998 TRUE
"479" "s02" 223 3 44 35 26 0.2308442 "right" "mid" "left" "right" "Choose a square with few dots" "Vague" 0.5 "Verbal" 0.5 "RtoL" 0.5 "Small" -0.5 "26:35:44" 0.25 "expected" 1167 7.06219163228656 FALSE
"480" "s02" 224 1 36 45 54 0.1833333 "left" "mid" "right" "left" "Choose a square with about 40 dots" "Vague" 0.5 "Numeric" -0.5 "LtoR" -0.5 "Small" -0.5 "36:45:54" 0.75 "expected" 1668 7.41938058291869 FALSE
"481" "s02" 225 4 24 15 6 0.4875 "right" "mid" "left" "right" "Choose the square with the fewest dots" "Crisp" -0.5 "Verbal" 0.5 "RtoL" 0.5 "Small" -0.5 "06:15:24" -0.75 "expected" 1335 7.19668657083435 FALSE
"482" "s02" 226 1 34 25 16 0.3123529 "right" "mid" "left" "right" "Choose a square with about 20 dots" "Vague" 0.5 "Numeric" -0.5 "RtoL" 0.5 "Small" -0.5 "16:25:34" -0.25 "expected" 860 6.75693238924755 FALSE
"483" "s02" 227 4 26 35 44 0.2308442 "right" "mid" "left" "right" "Choose the square with the most dots" "Crisp" -0.5 "Verbal" 0.5 "LtoR" -0.5 "Large" 0.5 "26:35:44" 0.25 "expected" 2404 7.7848892956551 FALSE
"484" "s02" 228 3 36 45 54 0.1833333 "right" "mid" "left" "right" "Choose a square with many dots" "Vague" 0.5 "Verbal" 0.5 "LtoR" -0.5 "Large" 0.5 "36:45:54" 0.75 "expected" 701 6.55250788703459 FALSE
"485" "s02" 229 3 6 15 24 0.4875 "right" "mid" "left" "right" "Choose a square with many dots" "Vague" 0.5 "Verbal" 0.5 "LtoR" -0.5 "Large" 0.5 "06:15:24" -0.75 "expected" 1978 7.58984151218266 FALSE
"486" "s02" 230 2 16 25 34 0.3123529 "right" "mid" "left" "right" "Choose the square with 34 dots" "Crisp" -0.5 "Numeric" -0.5 "LtoR" -0.5 "Large" 0.5 "16:25:34" -0.25 "expected" 1896 7.54750168281497 FALSE
