Subject	Trial	Item	discriminability	Instruction	nchar_instr	Vagueness	Number	Order	Quantity	c_Vag	c_Num	c_Ord	c_Qty	NaType	response_category	isBorderline	RT
1	s01	1	06:15:24	0.4875	Choose the square with 6 dots	29	Crisp	Numeric	RtoL	Small	-0.5	-0.5	0.5	-0.5	valid_trial	expected	FALSE	1517
2	s01	2	16:25:34	0.3123529	Choose a square with about 30 dots	34	Vague	Numeric	LtoR	Large	0.5	-0.5	-0.5	0.5	valid_trial	borderline	TRUE	1920
3	s01	3	26:35:44	0.2308442	Choose the square with the fewest dots	38	Crisp	Verbal	LtoR	Small	-0.5	0.5	-0.5	-0.5	valid_trial	expected	FALSE	2346
4	s01	4	36:45:54	0.1833333	Choose a square with about 50 dots	34	Vague	Numeric	RtoL	Large	0.5	-0.5	0.5	0.5	valid_trial	borderline	TRUE	1773
5	s01	5	06:15:24	0.4875	Choose a square with about 10 dots	34	Vague	Numeric	RtoL	Small	0.5	-0.5	0.5	-0.5	valid_trial	expected	FALSE	2556
6	s01	6	16:25:34	0.3123529	Choose a square with many dots	30	Vague	Verbal	LtoR	Large	0.5	0.5	-0.5	0.5	valid_trial	expected	FALSE	2043
7	s01	7	26:35:44	0.2308442	Choose a square with few dots	29	Vague	Verbal	RtoL	Small	0.5	0.5	0.5	-0.5	valid_trial	expected	FALSE	2384
8	s01	8	36:45:54	0.1833333	Choose the square with the fewest dots	38	Crisp	Verbal	RtoL	Small	-0.5	0.5	0.5	-0.5	valid_trial	expected	FALSE	3078
9	s01	9	06:15:24	0.4875	Choose the square with the most dots	36	Crisp	Verbal	LtoR	Large	-0.5	0.5	-0.5	0.5	valid_trial	expected	FALSE	1760
10	s01	10	16:25:34	0.3123529	Choose the square with 34 dots	30	Crisp	Numeric	RtoL	Large	-0.5	-0.5	0.5	0.5	valid_trial	borderline	TRUE	2218
11	s01	11	26:35:44	0.2308442	Choose a square with about 30 dots	34	Vague	Numeric	RtoL	Small	0.5	-0.5	0.5	-0.5	valid_trial	expected	FALSE	7986
12	s01	12	36:45:54	0.1833333	Choose a square with many dots	30	Vague	Verbal	RtoL	Large	0.5	0.5	0.5	0.5	valid_trial	expected	FALSE	1262
13	s01	13	06:15:24	0.4875	Choose a square with about 20 dots	34	Vague	Numeric	LtoR	Large	0.5	-0.5	-0.5	0.5	valid_trial	borderline	TRUE	1390
14	s01	14	16:25:34	0.3123529	Choose the square with the fewest dots	38	Crisp	Verbal	RtoL	Small	-0.5	0.5	0.5	-0.5	valid_trial	expected	FALSE	2067
15	s01	15	26:35:44	0.2308442	Choose the square with 44 dots	30	Crisp	Numeric	LtoR	Large	-0.5	-0.5	-0.5	0.5	valid_trial	expected	FALSE	3582
16	s01	16	36:45:54	0.1833333	Choose the square with 54 dots	30	Crisp	Numeric	LtoR	Large	-0.5	-0.5	-0.5	0.5	valid_trial	borderline	TRUE	1982
17	s01	17	06:15:24	0.4875	Choose a square with few dots	29	Vague	Verbal	LtoR	Small	0.5	0.5	-0.5	-0.5	valid_trial	expected	FALSE	1036
18	s01	18	16:25:34	0.3123529	Choose a square with few dots	29	Vague	Verbal	RtoL	Small	0.5	0.5	0.5	-0.5	valid_trial	expected	FALSE	1357
19	s01	19	26:35:44	0.2308442	Choose a square with about 30 dots	34	Vague	Numeric	LtoR	Small	0.5	-0.5	-0.5	-0.5	valid_trial	borderline	TRUE	2121
20	s01	20	36:45:54	0.1833333	Choose a square with about 40 dots	34	Vague	Numeric	RtoL	Small	0.5	-0.5	0.5	-0.5	valid_trial	borderline	TRUE	2104
21	s01	21	06:15:24	0.4875	Choose the square with the fewest dots	38	Crisp	Verbal	RtoL	Small	-0.5	0.5	0.5	-0.5	valid_trial	expected	FALSE	782
22	s01	22	16:25:34	0.3123529	Choose a square with about 20 dots	34	Vague	Numeric	LtoR	Small	0.5	-0.5	-0.5	-0.5	valid_trial	borderline	TRUE	1743
23	s01	23	26:35:44	0.2308442	Choose the square with the most dots	36	Crisp	Verbal	LtoR	Large	-0.5	0.5	-0.5	0.5	valid_trial	expected	FALSE	997
24	s01	24	36:45:54	0.1833333	Choose a square with few dots	29	Vague	Verbal	LtoR	Small	0.5	0.5	-0.5	-0.5	valid_trial	expected	FALSE	2274
25	s01	25	06:15:24	0.4875	Choose the square with 6 dots	29	Crisp	Numeric	LtoR	Small	-0.5	-0.5	-0.5	-0.5	valid_trial	expected	FALSE	830
26	s01	26	16:25:34	0.3123529	Choose a square with about 20 dots	34	Vague	Numeric	RtoL	Small	0.5	-0.5	0.5	-0.5	valid_trial	borderline	TRUE	1799
27	s01	27	26:35:44	0.2308442	Choose the square with the most dots	36	Crisp	Verbal	RtoL	Large	-0.5	0.5	0.5	0.5	valid_trial	expected	FALSE	2057
28	s01	28	36:45:54	0.1833333	Choose the square with 36 dots	30	Crisp	Numeric	LtoR	Small	-0.5	-0.5	-0.5	-0.5	valid_trial	expected	FALSE	1350
29	s01	29	06:15:24	0.4875	Choose the square with 24 dots	30	Crisp	Numeric	LtoR	Large	-0.5	-0.5	-0.5	0.5	valid_trial	expected	FALSE	3042
30	s01	30	16:25:34	0.3123529	Choose the square with the most dots	36	Crisp	Verbal	LtoR	Large	-0.5	0.5	-0.5	0.5	valid_trial	expected	FALSE	1240
31	s01	31	26:35:44	0.2308442	Choose the square with 26 dots	30	Crisp	Numeric	LtoR	Small	-0.5	-0.5	-0.5	-0.5	valid_trial	borderline	TRUE	2356
32	s01	32	36:45:54	0.1833333	Choose a square with few dots	29	Vague	Verbal	RtoL	Small	0.5	0.5	0.5	-0.5	valid_trial	expected	FALSE	3740
33	s01	33	06:15:24	0.4875	Choose the square with 24 dots	30	Crisp	Numeric	RtoL	Large	-0.5	-0.5	0.5	0.5	valid_trial	expected	FALSE	1689
34	s01	34	16:25:34	0.3123529	Choose the square with 34 dots	30	Crisp	Numeric	LtoR	Large	-0.5	-0.5	-0.5	0.5	valid_trial	expected	FALSE	4676
35	s01	35	26:35:44	0.2308442	Choose the square with 44 dots	30	Crisp	Numeric	RtoL	Large	-0.5	-0.5	0.5	0.5	valid_trial	borderline	TRUE	2900
36	s01	36	36:45:54	0.1833333	Choose a square with many dots	30	Vague	Verbal	LtoR	Large	0.5	0.5	-0.5	0.5	valid_trial	expected	FALSE	844
37	s01	37	06:15:24	0.4875	Choose a square with few dots	29	Vague	Verbal	RtoL	Small	0.5	0.5	0.5	-0.5	valid_trial	extreme	FALSE	1007
38	s01	38	16:25:34	0.3123529	Choose the square with the fewest dots	38	Crisp	Verbal	LtoR	Small	-0.5	0.5	-0.5	-0.5	valid_trial	expected	FALSE	1085
39	s01	39	26:35:44	0.2308442	Choose a square with about 40 dots	34	Vague	Numeric	RtoL	Large	0.5	-0.5	0.5	0.5	valid_trial	expected	FALSE	2229
40	s01	40	36:45:54	0.1833333	Choose the square with the most dots	36	Crisp	Verbal	RtoL	Large	-0.5	0.5	0.5	0.5	valid_trial	expected	FALSE	2299
41	s01	41	06:15:24	0.4875	Choose a square with about 10 dots	34	Vague	Numeric	LtoR	Small	0.5	-0.5	-0.5	-0.5	valid_trial	borderline	TRUE	2873
42	s01	42	16:25:34	0.3123529	Choose a square with few dots	29	Vague	Verbal	LtoR	Small	0.5	0.5	-0.5	-0.5	valid_trial	expected	FALSE	2683
43	s01	43	26:35:44	0.2308442	Choose a square with few dots	29	Vague	Verbal	LtoR	Small	0.5	0.5	-0.5	-0.5	valid_trial	expected	FALSE	1323
44	s01	44	36:45:54	0.1833333	Choose a square with about 50 dots	34	Vague	Numeric	LtoR	Large	0.5	-0.5	-0.5	0.5	valid_trial	expected	FALSE	2298
45	s01	45	06:15:24	0.4875	Choose a square with about 20 dots	34	Vague	Numeric	RtoL	Large	0.5	-0.5	0.5	0.5	valid_trial	expected	FALSE	2259
46	s01	46	16:25:34	0.3123529	Choose a square with about 30 dots	34	Vague	Numeric	RtoL	Large	0.5	-0.5	0.5	0.5	valid_trial	expected	FALSE	1944
47	s01	47	26:35:44	0.2308442	Choose the square with the fewest dots	38	Crisp	Verbal	RtoL	Small	-0.5	0.5	0.5	-0.5	valid_trial	expected	FALSE	1916
48	s01	48	36:45:54	0.1833333	Choose the square with 36 dots	30	Crisp	Numeric	RtoL	Small	-0.5	-0.5	0.5	-0.5	valid_trial	borderline	TRUE	3192
49	s01	49	06:15:24	0.4875	Choose the square with the fewest dots	38	Crisp	Verbal	LtoR	Small	-0.5	0.5	-0.5	-0.5	valid_trial	expected	FALSE	945
50	s01	50	16:25:34	0.3123529	Choose the square with the most dots	36	Crisp	Verbal	RtoL	Large	-0.5	0.5	0.5	0.5	valid_trial	expected	FALSE	1315
51	s01	51	26:35:44	0.2308442	Choose a square with many dots	30	Vague	Verbal	LtoR	Large	0.5	0.5	-0.5	0.5	valid_trial	expected	FALSE	3253
52	s01	52	36:45:54	0.1833333	Choose a square with about 40 dots	34	Vague	Numeric	LtoR	Small	0.5	-0.5	-0.5	-0.5	valid_trial	extreme	FALSE	3155
53	s01	53	06:15:24	0.4875	Choose a square with many dots	30	Vague	Verbal	LtoR	Large	0.5	0.5	-0.5	0.5	valid_trial	expected	FALSE	704
54	s01	54	16:25:34	0.3123529	Choose the square with 16 dots	30	Crisp	Numeric	RtoL	Small	-0.5	-0.5	0.5	-0.5	valid_trial	borderline	TRUE	1942
55	s01	55	26:35:44	0.2308442	Choose the square with 26 dots	30	Crisp	Numeric	RtoL	Small	-0.5	-0.5	0.5	-0.5	valid_trial	borderline	TRUE	3566
56	s01	56	36:45:54	0.1833333	Choose the square with 54 dots	30	Crisp	Numeric	RtoL	Large	-0.5	-0.5	0.5	0.5	valid_trial	expected	FALSE	1754
57	s01	57	06:15:24	0.4875	Choose the square with the most dots	36	Crisp	Verbal	RtoL	Large	-0.5	0.5	0.5	0.5	valid_trial	expected	FALSE	933
58	s01	58	16:25:34	0.3123529	Choose the square with 16 dots	30	Crisp	Numeric	LtoR	Small	-0.5	-0.5	-0.5	-0.5	valid_trial	expected	FALSE	8155
59	s01	59	26:35:44	0.2308442	Choose a square with many dots	30	Vague	Verbal	RtoL	Large	0.5	0.5	0.5	0.5	valid_trial	expected	FALSE	2022
60	s01	60	36:45:54	0.1833333	Choose the square with the most dots	36	Crisp	Verbal	LtoR	Large	-0.5	0.5	-0.5	0.5	valid_trial	expected	FALSE	1029
61	s01	61	06:15:24	0.4875	Choose a square with many dots	30	Vague	Verbal	RtoL	Large	0.5	0.5	0.5	0.5	valid_trial	expected	FALSE	1046
62	s01	62	16:25:34	0.3123529	Choose a square with many dots	30	Vague	Verbal	RtoL	Large	0.5	0.5	0.5	0.5	valid_trial	expected	FALSE	1203
63	s01	63	26:35:44	0.2308442	Choose a square with about 40 dots	34	Vague	Numeric	LtoR	Large	0.5	-0.5	-0.5	0.5	valid_trial	expected	FALSE	1313
64	s01	64	36:45:54	0.1833333	Choose the square with the fewest dots	38	Crisp	Verbal	LtoR	Small	-0.5	0.5	-0.5	-0.5	valid_trial	expected	FALSE	1019
65	s01	65	06:15:24	0.4875	Choose a square with about 10 dots	34	Vague	Numeric	RtoL	Small	0.5	-0.5	0.5	-0.5	valid_trial	borderline	TRUE	1452
66	s01	66	16:25:34	0.3123529	Choose a square with about 30 dots	34	Vague	Numeric	RtoL	Large	0.5	-0.5	0.5	0.5	valid_trial	expected	FALSE	1544
67	s01	67	26:35:44	0.2308442	Choose a square with many dots	30	Vague	Verbal	LtoR	Large	0.5	0.5	-0.5	0.5	valid_trial	expected	FALSE	874
68	s01	68	36:45:54	0.1833333	Choose a square with about 40 dots	34	Vague	Numeric	RtoL	Small	0.5	-0.5	0.5	-0.5	valid_trial	extreme	FALSE	3235
69	s01	69	06:15:24	0.4875	Choose a square with about 20 dots	34	Vague	Numeric	LtoR	Large	0.5	-0.5	-0.5	0.5	valid_trial	borderline	TRUE	2743
70	s01	70	16:25:34	0.3123529	Choose the square with 34 dots	30	Crisp	Numeric	RtoL	Large	-0.5	-0.5	0.5	0.5	valid_trial	expected	FALSE	1494
71	s01	71	26:35:44	0.2308442	Choose the square with the most dots	36	Crisp	Verbal	LtoR	Large	-0.5	0.5	-0.5	0.5	valid_trial	expected	FALSE	834
72	s01	72	36:45:54	0.1833333	Choose a square with many dots	30	Vague	Verbal	LtoR	Large	0.5	0.5	-0.5	0.5	valid_trial	expected	FALSE	1349
73	s01	73	06:15:24	0.4875	Choose a square with few dots	29	Vague	Verbal	RtoL	Small	0.5	0.5	0.5	-0.5	valid_trial	extreme	FALSE	717
74	s01	74	16:25:34	0.3123529	Choose a square with many dots	30	Vague	Verbal	LtoR	Large	0.5	0.5	-0.5	0.5	valid_trial	expected	FALSE	1648
75	s01	75	26:35:44	0.2308442	Choose a square with about 30 dots	34	Vague	Numeric	RtoL	Small	0.5	-0.5	0.5	-0.5	valid_trial	extreme	FALSE	940
76	s01	76	36:45:54	0.1833333	Choose the square with 36 dots	30	Crisp	Numeric	LtoR	Small	-0.5	-0.5	-0.5	-0.5	valid_trial	extreme	FALSE	2787
77	s01	77	06:15:24	0.4875	Choose the square with the most dots	36	Crisp	Verbal	RtoL	Large	-0.5	0.5	0.5	0.5	valid_trial	expected	FALSE	880
78	s01	78	16:25:34	0.3123529	Choose the square with 16 dots	30	Crisp	Numeric	RtoL	Small	-0.5	-0.5	0.5	-0.5	valid_trial	borderline	TRUE	1795
79	s01	79	26:35:44	0.2308442	Choose the square with 26 dots	30	Crisp	Numeric	LtoR	Small	-0.5	-0.5	-0.5	-0.5	valid_trial	borderline	TRUE	1844
80	s01	80	36:45:54	0.1833333	Choose a square with few dots	29	Vague	Verbal	LtoR	Small	0.5	0.5	-0.5	-0.5	valid_trial	expected	FALSE	1548
81	s01	81	06:15:24	0.4875	Choose the square with 24 dots	30	Crisp	Numeric	LtoR	Large	-0.5	-0.5	-0.5	0.5	valid_trial	expected	FALSE	1902
82	s01	82	16:25:34	0.3123529	Choose the square with the fewest dots	38	Crisp	Verbal	LtoR	Small	-0.5	0.5	-0.5	-0.5	valid_trial	expected	FALSE	919
83	s01	83	26:35:44	0.2308442	Choose the square with the most dots	36	Crisp	Verbal	RtoL	Large	-0.5	0.5	0.5	0.5	valid_trial	expected	FALSE	798
84	s01	84	36:45:54	0.1833333	Choose a square with few dots	29	Vague	Verbal	RtoL	Small	0.5	0.5	0.5	-0.5	valid_trial	expected	FALSE	2193
85	s01	85	06:15:24	0.4875	Choose the square with 6 dots	29	Crisp	Numeric	RtoL	Small	-0.5	-0.5	0.5	-0.5	valid_trial	expected	FALSE	1293
86	s01	86	16:25:34	0.3123529	Choose a square with few dots	29	Vague	Verbal	RtoL	Small	0.5	0.5	0.5	-0.5	valid_trial	expected	FALSE	1420
87	s01	87	26:35:44	0.2308442	Choose a square with about 30 dots	34	Vague	Numeric	LtoR	Small	0.5	-0.5	-0.5	-0.5	valid_trial	borderline	TRUE	2219
88	s01	88	36:45:54	0.1833333	Choose the square with 54 dots	30	Crisp	Numeric	RtoL	Large	-0.5	-0.5	0.5	0.5	valid_trial	expected	FALSE	913
89	s01	89	06:15:24	0.4875	Choose the square with the most dots	36	Crisp	Verbal	LtoR	Large	-0.5	0.5	-0.5	0.5	valid_trial	expected	FALSE	825
90	s01	90	16:25:34	0.3123529	Choose a square with many dots	30	Vague	Verbal	RtoL	Large	0.5	0.5	0.5	0.5	valid_trial	expected	FALSE	2325
91	s01	91	26:35:44	0.2308442	Choose a square with many dots	30	Vague	Verbal	RtoL	Large	0.5	0.5	0.5	0.5	valid_trial	expected	FALSE	1486
92	s01	92	36:45:54	0.1833333	Choose the square with the most dots	36	Crisp	Verbal	RtoL	Large	-0.5	0.5	0.5	0.5	valid_trial	expected	FALSE	1195
93	s01	93	06:15:24	0.4875	Choose a square with many dots	30	Vague	Verbal	RtoL	Large	0.5	0.5	0.5	0.5	valid_trial	expected	FALSE	1483
94	s01	94	16:25:34	0.3123529	Choose a square with about 20 dots	34	Vague	Numeric	LtoR	Small	0.5	-0.5	-0.5	-0.5	valid_trial	borderline	TRUE	2112
95	s01	95	26:35:44	0.2308442	Choose the square with 26 dots	30	Crisp	Numeric	RtoL	Small	-0.5	-0.5	0.5	-0.5	valid_trial	borderline	TRUE	3120
96	s01	96	36:45:54	0.1833333	Choose the square with 36 dots	30	Crisp	Numeric	RtoL	Small	-0.5	-0.5	0.5	-0.5	valid_trial	extreme	FALSE	4594
97	s01	97	06:15:24	0.4875	Choose a square with many dots	30	Vague	Verbal	LtoR	Large	0.5	0.5	-0.5	0.5	valid_trial	expected	FALSE	717
98	s01	98	16:25:34	0.3123529	Choose a square with few dots	29	Vague	Verbal	LtoR	Small	0.5	0.5	-0.5	-0.5	valid_trial	expected	FALSE	888
99	s01	99	26:35:44	0.2308442	Choose a square with about 40 dots	34	Vague	Numeric	RtoL	Large	0.5	-0.5	0.5	0.5	valid_trial	expected	FALSE	1204
100	s01	100	36:45:54	0.1833333	Choose the square with the fewest dots	38	Crisp	Verbal	LtoR	Small	-0.5	0.5	-0.5	-0.5	valid_trial	expected	FALSE	3062
101	s01	101	06:15:24	0.4875	Choose the square with the fewest dots	38	Crisp	Verbal	RtoL	Small	-0.5	0.5	0.5	-0.5	valid_trial	expected	FALSE	1091
102	s01	102	16:25:34	0.3123529	Choose a square with about 30 dots	34	Vague	Numeric	LtoR	Large	0.5	-0.5	-0.5	0.5	valid_trial	expected	FALSE	1631
103	s01	103	26:35:44	0.2308442	Choose the square with the fewest dots	38	Crisp	Verbal	LtoR	Small	-0.5	0.5	-0.5	-0.5	valid_trial	expected	FALSE	1593
104	s01	104	36:45:54	0.1833333	Choose the square with the fewest dots	38	Crisp	Verbal	RtoL	Small	-0.5	0.5	0.5	-0.5	valid_trial	expected	FALSE	1233
105	s01	105	06:15:24	0.4875	Choose a square with about 10 dots	34	Vague	Numeric	LtoR	Small	0.5	-0.5	-0.5	-0.5	valid_trial	borderline	TRUE	1081
106	s01	106	16:25:34	0.3123529	Choose the square with the most dots	36	Crisp	Verbal	RtoL	Large	-0.5	0.5	0.5	0.5	valid_trial	expected	FALSE	1687
107	s01	107	26:35:44	0.2308442	Choose a square with few dots	29	Vague	Verbal	LtoR	Small	0.5	0.5	-0.5	-0.5	valid_trial	expected	FALSE	1900
108	s01	108	36:45:54	0.1833333	Choose a square with about 50 dots	34	Vague	Numeric	LtoR	Large	0.5	-0.5	-0.5	0.5	valid_trial	expected	FALSE	1383
109	s01	109	06:15:24	0.4875	Choose a square with few dots	29	Vague	Verbal	LtoR	Small	0.5	0.5	-0.5	-0.5	valid_trial	expected	FALSE	1557
110	s01	110	16:25:34	0.3123529	Choose the square with 34 dots	30	Crisp	Numeric	LtoR	Large	-0.5	-0.5	-0.5	0.5	valid_trial	expected	FALSE	1104
111	s01	111	26:35:44	0.2308442	Choose a square with about 40 dots	34	Vague	Numeric	LtoR	Large	0.5	-0.5	-0.5	0.5	valid_trial	expected	FALSE	1116
112	s01	112	36:45:54	0.1833333	Choose a square with about 40 dots	34	Vague	Numeric	LtoR	Small	0.5	-0.5	-0.5	-0.5	valid_trial	extreme	FALSE	1254
113	s01	113	06:15:24	0.4875	Choose the square with 6 dots	29	Crisp	Numeric	LtoR	Small	-0.5	-0.5	-0.5	-0.5	valid_trial	expected	FALSE	1029
114	s01	114	16:25:34	0.3123529	Choose the square with the fewest dots	38	Crisp	Verbal	RtoL	Small	-0.5	0.5	0.5	-0.5	valid_trial	expected	FALSE	1459
115	s01	115	26:35:44	0.2308442	Choose a square with few dots	29	Vague	Verbal	RtoL	Small	0.5	0.5	0.5	-0.5	valid_trial	expected	FALSE	1491
116	s01	116	36:45:54	0.1833333	Choose the square with the most dots	36	Crisp	Verbal	LtoR	Large	-0.5	0.5	-0.5	0.5	valid_trial	expected	FALSE	1820
117	s01	117	06:15:24	0.4875	Choose a square with about 20 dots	34	Vague	Numeric	RtoL	Large	0.5	-0.5	0.5	0.5	valid_trial	expected	FALSE	952
118	s01	118	16:25:34	0.3123529	Choose the square with 16 dots	30	Crisp	Numeric	LtoR	Small	-0.5	-0.5	-0.5	-0.5	valid_trial	borderline	TRUE	1303
119	s01	119	26:35:44	0.2308442	Choose the square with 44 dots	30	Crisp	Numeric	RtoL	Large	-0.5	-0.5	0.5	0.5	valid_trial	expected	FALSE	1659
120	s01	120	36:45:54	0.1833333	Choose a square with about 50 dots	34	Vague	Numeric	RtoL	Large	0.5	-0.5	0.5	0.5	valid_trial	expected	FALSE	1027
121	s01	121	06:15:24	0.4875	Choose the square with 24 dots	30	Crisp	Numeric	RtoL	Large	-0.5	-0.5	0.5	0.5	valid_trial	expected	FALSE	1570
122	s01	122	16:25:34	0.3123529	Choose a square with about 20 dots	34	Vague	Numeric	RtoL	Small	0.5	-0.5	0.5	-0.5	valid_trial	borderline	TRUE	1100
123	s01	123	26:35:44	0.2308442	Choose the square with the fewest dots	38	Crisp	Verbal	RtoL	Small	-0.5	0.5	0.5	-0.5	valid_trial	expected	FALSE	1433
124	s01	124	36:45:54	0.1833333	Choose a square with many dots	30	Vague	Verbal	RtoL	Large	0.5	0.5	0.5	0.5	valid_trial	expected	FALSE	1005
125	s01	125	06:15:24	0.4875	Choose the square with the fewest dots	38	Crisp	Verbal	LtoR	Small	-0.5	0.5	-0.5	-0.5	valid_trial	expected	FALSE	1121
126	s01	126	16:25:34	0.3123529	Choose the square with the most dots	36	Crisp	Verbal	LtoR	Large	-0.5	0.5	-0.5	0.5	valid_trial	expected	FALSE	1564
127	s01	127	26:35:44	0.2308442	Choose the square with 44 dots	30	Crisp	Numeric	LtoR	Large	-0.5	-0.5	-0.5	0.5	valid_trial	expected	FALSE	1016
128	s01	128	36:45:54	0.1833333	Choose the square with 54 dots	30	Crisp	Numeric	LtoR	Large	-0.5	-0.5	-0.5	0.5	valid_trial	expected	FALSE	2456
129	s01	129	06:15:24	0.4875	Choose a square with about 10 dots	34	Vague	Numeric	RtoL	Small	0.5	-0.5	0.5	-0.5	valid_trial	borderline	TRUE	1254
130	s01	130	16:25:34	0.3123529	Choose a square with about 30 dots	34	Vague	Numeric	RtoL	Large	0.5	-0.5	0.5	0.5	valid_trial	expected	FALSE	1799
131	s01	131	26:35:44	0.2308442	Choose the square with the most dots	36	Crisp	Verbal	RtoL	Large	-0.5	0.5	0.5	0.5	valid_trial	expected	FALSE	1286
132	s01	132	36:45:54	0.1833333	Choose the square with the fewest dots	38	Crisp	Verbal	RtoL	Small	-0.5	0.5	0.5	-0.5	valid_trial	borderline	TRUE	2192
133	s01	133	06:15:24	0.4875	Choose the square with the fewest dots	38	Crisp	Verbal	RtoL	Small	-0.5	0.5	0.5	-0.5	valid_trial	expected	FALSE	1095
134	s01	134	16:25:34	0.3123529	Choose the square with the most dots	36	Crisp	Verbal	LtoR	Large	-0.5	0.5	-0.5	0.5	valid_trial	expected	FALSE	764
135	s01	135	26:35:44	0.2308442	Choose a square with about 40 dots	34	Vague	Numeric	RtoL	Large	0.5	-0.5	0.5	0.5	valid_trial	expected	FALSE	1412
136	s01	136	36:45:54	0.1833333	Choose the square with 36 dots	30	Crisp	Numeric	RtoL	Small	-0.5	-0.5	0.5	-0.5	valid_trial	extreme	FALSE	2820
137	s01	137	06:15:24	0.4875	Choose a square with about 20 dots	34	Vague	Numeric	LtoR	Large	0.5	-0.5	-0.5	0.5	valid_trial	expected	FALSE	1617
138	s01	138	16:25:34	0.3123529	Choose a square with many dots	30	Vague	Verbal	RtoL	Large	0.5	0.5	0.5	0.5	valid_trial	expected	FALSE	2162
139	s01	139	26:35:44	0.2308442	Choose the square with 26 dots	30	Crisp	Numeric	RtoL	Small	-0.5	-0.5	0.5	-0.5	valid_trial	extreme	FALSE	4054
140	s01	140	36:45:54	0.1833333	Choose a square with about 50 dots	34	Vague	Numeric	RtoL	Large	0.5	-0.5	0.5	0.5	valid_trial	expected	FALSE	2135
141	s01	141	06:15:24	0.4875	Choose a square with many dots	30	Vague	Verbal	LtoR	Large	0.5	0.5	-0.5	0.5	valid_trial	expected	FALSE	1307
142	s01	142	16:25:34	0.3123529	Choose the square with the fewest dots	38	Crisp	Verbal	RtoL	Small	-0.5	0.5	0.5	-0.5	valid_trial	expected	FALSE	1039
143	s01	143	26:35:44	0.2308442	Choose a square with about 30 dots	34	Vague	Numeric	LtoR	Small	0.5	-0.5	-0.5	-0.5	valid_trial	extreme	FALSE	1460
144	s01	144	36:45:54	0.1833333	Choose a square with few dots	29	Vague	Verbal	LtoR	Small	0.5	0.5	-0.5	-0.5	valid_trial	expected	FALSE	1633
145	s01	145	06:15:24	0.4875	Choose a square with few dots	29	Vague	Verbal	LtoR	Small	0.5	0.5	-0.5	-0.5	valid_trial	expected	FALSE	1268
146	s01	146	16:25:34	0.3123529	Choose the square with 34 dots	30	Crisp	Numeric	LtoR	Large	-0.5	-0.5	-0.5	0.5	valid_trial	expected	FALSE	1688
147	s01	147	26:35:44	0.2308442	Choose the square with 44 dots	30	Crisp	Numeric	RtoL	Large	-0.5	-0.5	0.5	0.5	valid_trial	expected	FALSE	1861
148	s01	148	36:45:54	0.1833333	Choose the square with the most dots	36	Crisp	Verbal	LtoR	Large	-0.5	0.5	-0.5	0.5	valid_trial	expected	FALSE	1293
149	s01	149	06:15:24	0.4875	Choose the square with 6 dots	29	Crisp	Numeric	RtoL	Small	-0.5	-0.5	0.5	-0.5	valid_trial	expected	FALSE	1200
150	s01	150	16:25:34	0.3123529	Choose the square with 34 dots	30	Crisp	Numeric	RtoL	Large	-0.5	-0.5	0.5	0.5	valid_trial	expected	FALSE	1262
151	s01	151	26:35:44	0.2308442	Choose the square with 26 dots	30	Crisp	Numeric	LtoR	Small	-0.5	-0.5	-0.5	-0.5	valid_trial	borderline	TRUE	2426
152	s01	152	36:45:54	0.1833333	Choose a square with many dots	30	Vague	Verbal	RtoL	Large	0.5	0.5	0.5	0.5	valid_trial	expected	FALSE	2804
153	s01	153	06:15:24	0.4875	Choose a square with few dots	29	Vague	Verbal	RtoL	Small	0.5	0.5	0.5	-0.5	valid_trial	expected	FALSE	1153
154	s01	154	16:25:34	0.3123529	Choose the square with the most dots	36	Crisp	Verbal	RtoL	Large	-0.5	0.5	0.5	0.5	valid_trial	expected	FALSE	1108
155	s01	155	26:35:44	0.2308442	Choose a square with few dots	29	Vague	Verbal	RtoL	Small	0.5	0.5	0.5	-0.5	valid_trial	expected	FALSE	1362
156	s01	156	36:45:54	0.1833333	Choose a square with many dots	30	Vague	Verbal	LtoR	Large	0.5	0.5	-0.5	0.5	valid_trial	expected	FALSE	2119
157	s01	157	06:15:24	0.4875	Choose the square with 24 dots	30	Crisp	Numeric	LtoR	Large	-0.5	-0.5	-0.5	0.5	valid_trial	expected	FALSE	1442
158	s01	158	16:25:34	0.3123529	Choose a square with few dots	29	Vague	Verbal	LtoR	Small	0.5	0.5	-0.5	-0.5	valid_trial	expected	FALSE	1065
159	s01	159	26:35:44	0.2308442	Choose a square with few dots	29	Vague	Verbal	LtoR	Small	0.5	0.5	-0.5	-0.5	valid_trial	expected	FALSE	1112
160	s01	160	36:45:54	0.1833333	Choose a square with about 50 dots	34	Vague	Numeric	LtoR	Large	0.5	-0.5	-0.5	0.5	valid_trial	expected	FALSE	1188
161	s01	161	06:15:24	0.4875	Choose the square with 6 dots	29	Crisp	Numeric	LtoR	Small	-0.5	-0.5	-0.5	-0.5	valid_trial	expected	FALSE	734
162	s01	162	16:25:34	0.3123529	Choose the square with the fewest dots	38	Crisp	Verbal	LtoR	Small	-0.5	0.5	-0.5	-0.5	valid_trial	expected	FALSE	1400
163	s01	163	26:35:44	0.2308442	Choose a square with many dots	30	Vague	Verbal	LtoR	Large	0.5	0.5	-0.5	0.5	valid_trial	expected	FALSE	1673
164	s01	164	36:45:54	0.1833333	Choose the square with 54 dots	30	Crisp	Numeric	LtoR	Large	-0.5	-0.5	-0.5	0.5	valid_trial	expected	FALSE	1631
165	s01	165	06:15:24	0.4875	Choose a square with many dots	30	Vague	Verbal	RtoL	Large	0.5	0.5	0.5	0.5	valid_trial	expected	FALSE	1971
166	s01	166	16:25:34	0.3123529	Choose a square with about 20 dots	34	Vague	Numeric	LtoR	Small	0.5	-0.5	-0.5	-0.5	valid_trial	borderline	TRUE	3524
167	s01	167	26:35:44	0.2308442	Choose the square with 44 dots	30	Crisp	Numeric	LtoR	Large	-0.5	-0.5	-0.5	0.5	valid_trial	expected	FALSE	1128
168	s01	168	36:45:54	0.1833333	Choose a square with about 40 dots	34	Vague	Numeric	RtoL	Small	0.5	-0.5	0.5	-0.5	valid_trial	extreme	FALSE	1962
169	s01	169	06:15:24	0.4875	Choose the square with the most dots	36	Crisp	Verbal	RtoL	Large	-0.5	0.5	0.5	0.5	valid_trial	expected	FALSE	1045
170	s01	170	16:25:34	0.3123529	Choose a square with about 20 dots	34	Vague	Numeric	RtoL	Small	0.5	-0.5	0.5	-0.5	valid_trial	borderline	TRUE	2018
171	s01	171	26:35:44	0.2308442	Choose the square with the fewest dots	38	Crisp	Verbal	RtoL	Small	-0.5	0.5	0.5	-0.5	valid_trial	expected	FALSE	1240
172	s01	172	36:45:54	0.1833333	Choose the square with the most dots	36	Crisp	Verbal	RtoL	Large	-0.5	0.5	0.5	0.5	valid_trial	expected	FALSE	1282
173	s01	173	06:15:24	0.4875	Choose a square with about 20 dots	34	Vague	Numeric	RtoL	Large	0.5	-0.5	0.5	0.5	valid_trial	expected	FALSE	1276
174	s01	174	16:25:34	0.3123529	Choose a square with many dots	30	Vague	Verbal	LtoR	Large	0.5	0.5	-0.5	0.5	valid_trial	expected	FALSE	1256
175	s01	175	26:35:44	0.2308442	Choose a square with about 30 dots	34	Vague	Numeric	RtoL	Small	0.5	-0.5	0.5	-0.5	valid_trial	extreme	FALSE	1796
176	s01	176	36:45:54	0.1833333	Choose the square with 36 dots	30	Crisp	Numeric	LtoR	Small	-0.5	-0.5	-0.5	-0.5	valid_trial	extreme	FALSE	1780
177	s01	177	06:15:24	0.4875	Choose the square with the most dots	36	Crisp	Verbal	LtoR	Large	-0.5	0.5	-0.5	0.5	valid_trial	expected	FALSE	1565
178	s01	178	16:25:34	0.3123529	Choose a square with about 30 dots	34	Vague	Numeric	LtoR	Large	0.5	-0.5	-0.5	0.5	valid_trial	expected	FALSE	1470
179	s01	179	26:35:44	0.2308442	Choose the square with the most dots	36	Crisp	Verbal	LtoR	Large	-0.5	0.5	-0.5	0.5	valid_trial	expected	FALSE	1841
180	s01	180	36:45:54	0.1833333	Choose the square with the fewest dots	38	Crisp	Verbal	LtoR	Small	-0.5	0.5	-0.5	-0.5	valid_trial	expected	FALSE	2064
181	s01	181	06:15:24	0.4875	Choose the square with the fewest dots	38	Crisp	Verbal	LtoR	Small	-0.5	0.5	-0.5	-0.5	valid_trial	expected	FALSE	866
182	s01	182	16:25:34	0.3123529	Choose the square with 16 dots	30	Crisp	Numeric	LtoR	Small	-0.5	-0.5	-0.5	-0.5	valid_trial	borderline	TRUE	1229
183	s01	183	26:35:44	0.2308442	Choose a square with many dots	30	Vague	Verbal	RtoL	Large	0.5	0.5	0.5	0.5	valid_trial	expected	FALSE	948
184	s01	184	36:45:54	0.1833333	Choose a square with about 40 dots	34	Vague	Numeric	LtoR	Small	0.5	-0.5	-0.5	-0.5	valid_trial	extreme	FALSE	789
185	s01	185	06:15:24	0.4875	Choose the square with 24 dots	30	Crisp	Numeric	RtoL	Large	-0.5	-0.5	0.5	0.5	valid_trial	expected	FALSE	1131
186	s01	186	16:25:34	0.3123529	Choose a square with few dots	29	Vague	Verbal	RtoL	Small	0.5	0.5	0.5	-0.5	valid_trial	expected	FALSE	1212
187	s01	187	26:35:44	0.2308442	Choose the square with the fewest dots	38	Crisp	Verbal	LtoR	Small	-0.5	0.5	-0.5	-0.5	valid_trial	expected	FALSE	1228
188	s01	188	36:45:54	0.1833333	Choose the square with 54 dots	30	Crisp	Numeric	RtoL	Large	-0.5	-0.5	0.5	0.5	valid_trial	expected	FALSE	1501
189	s01	189	06:15:24	0.4875	Choose a square with about 10 dots	34	Vague	Numeric	LtoR	Small	0.5	-0.5	-0.5	-0.5	valid_trial	borderline	TRUE	1285
190	s01	190	16:25:34	0.3123529	Choose the square with 16 dots	30	Crisp	Numeric	RtoL	Small	-0.5	-0.5	0.5	-0.5	valid_trial	borderline	TRUE	1980
191	s01	191	26:35:44	0.2308442	Choose a square with about 40 dots	34	Vague	Numeric	LtoR	Large	0.5	-0.5	-0.5	0.5	valid_trial	expected	FALSE	1671
192	s01	192	36:45:54	0.1833333	Choose a square with few dots	29	Vague	Verbal	RtoL	Small	0.5	0.5	0.5	-0.5	valid_trial	expected	FALSE	2294
193	s01	193	06:15:24	0.4875	Choose a square with many dots	30	Vague	Verbal	LtoR	Large	0.5	0.5	-0.5	0.5	valid_trial	expected	FALSE	943
194	s01	194	16:25:34	0.3123529	Choose the square with 16 dots	30	Crisp	Numeric	LtoR	Small	-0.5	-0.5	-0.5	-0.5	valid_trial	borderline	TRUE	1466
195	s01	195	26:35:44	0.2308442	Choose the square with 44 dots	30	Crisp	Numeric	LtoR	Large	-0.5	-0.5	-0.5	0.5	valid_trial	expected	FALSE	872
196	s01	196	36:45:54	0.1833333	Choose a square with about 50 dots	34	Vague	Numeric	RtoL	Large	0.5	-0.5	0.5	0.5	valid_trial	expected	FALSE	761
197	s01	197	06:15:24	0.4875	Choose the square with the most dots	36	Crisp	Verbal	LtoR	Large	-0.5	0.5	-0.5	0.5	valid_trial	expected	FALSE	615
198	s01	198	16:25:34	0.3123529	Choose a square with few dots	29	Vague	Verbal	LtoR	Small	0.5	0.5	-0.5	-0.5	valid_trial	expected	FALSE	805
199	s01	199	26:35:44	0.2308442	Choose the square with the fewest dots	38	Crisp	Verbal	LtoR	Small	-0.5	0.5	-0.5	-0.5	valid_trial	expected	FALSE	1040
200	s01	200	36:45:54	0.1833333	Choose the square with the fewest dots	38	Crisp	Verbal	LtoR	Small	-0.5	0.5	-0.5	-0.5	valid_trial	expected	FALSE	2051
201	s01	201	06:15:24	0.4875	Choose the square with the fewest dots	38	Crisp	Verbal	RtoL	Small	-0.5	0.5	0.5	-0.5	valid_trial	expected	FALSE	1247
202	s01	202	16:25:34	0.3123529	Choose the square with 34 dots	30	Crisp	Numeric	LtoR	Large	-0.5	-0.5	-0.5	0.5	valid_trial	expected	FALSE	1943
203	s01	203	26:35:44	0.2308442	Choose a square with few dots	29	Vague	Verbal	RtoL	Small	0.5	0.5	0.5	-0.5	valid_trial	expected	FALSE	979
204	s01	204	36:45:54	0.1833333	Choose the square with 36 dots	30	Crisp	Numeric	RtoL	Small	-0.5	-0.5	0.5	-0.5	valid_trial	extreme	FALSE	2863
205	s01	205	06:15:24	0.4875	Choose a square with about 10 dots	34	Vague	Numeric	RtoL	Small	0.5	-0.5	0.5	-0.5	valid_trial	borderline	TRUE	1087
206	s01	206	16:25:34	0.3123529	Choose a square with about 30 dots	34	Vague	Numeric	RtoL	Large	0.5	-0.5	0.5	0.5	valid_trial	expected	FALSE	873
207	s01	207	26:35:44	0.2308442	Choose a square with many dots	30	Vague	Verbal	LtoR	Large	0.5	0.5	-0.5	0.5	valid_trial	expected	FALSE	1047
208	s01	208	36:45:54	0.1833333	Choose the square with 54 dots	30	Crisp	Numeric	LtoR	Large	-0.5	-0.5	-0.5	0.5	valid_trial	expected	FALSE	842
209	s01	209	06:15:24	0.4875	Choose a square with few dots	29	Vague	Verbal	RtoL	Small	0.5	0.5	0.5	-0.5	valid_trial	expected	FALSE	821
210	s01	210	16:25:34	0.3123529	Choose a square with many dots	30	Vague	Verbal	RtoL	Large	0.5	0.5	0.5	0.5	valid_trial	expected	FALSE	1849
211	s01	211	26:35:44	0.2308442	Choose the square with 44 dots	30	Crisp	Numeric	RtoL	Large	-0.5	-0.5	0.5	0.5	valid_trial	expected	FALSE	1229
212	s01	212	36:45:54	0.1833333	Choose a square with many dots	30	Vague	Verbal	LtoR	Large	0.5	0.5	-0.5	0.5	valid_trial	expected	FALSE	1512
213	s01	213	06:15:24	0.4875	Choose the square with 6 dots	29	Crisp	Numeric	LtoR	Small	-0.5	-0.5	-0.5	-0.5	valid_trial	expected	FALSE	838
214	s01	214	16:25:34	0.3123529	Choose the square with 34 dots	30	Crisp	Numeric	RtoL	Large	-0.5	-0.5	0.5	0.5	valid_trial	expected	FALSE	1471
215	s01	215	26:35:44	0.2308442	Choose the square with the most dots	36	Crisp	Verbal	RtoL	Large	-0.5	0.5	0.5	0.5	valid_trial	expected	FALSE	1251
216	s01	216	36:45:54	0.1833333	Choose the square with 36 dots	30	Crisp	Numeric	LtoR	Small	-0.5	-0.5	-0.5	-0.5	valid_trial	extreme	FALSE	1150
217	s01	217	06:15:24	0.4875	Choose a square with about 20 dots	34	Vague	Numeric	LtoR	Large	0.5	-0.5	-0.5	0.5	valid_trial	expected	FALSE	1436
218	s01	218	16:25:34	0.3123529	Choose a square with many dots	30	Vague	Verbal	LtoR	Large	0.5	0.5	-0.5	0.5	valid_trial	expected	FALSE	1352
219	s01	219	26:35:44	0.2308442	Choose a square with few dots	29	Vague	Verbal	LtoR	Small	0.5	0.5	-0.5	-0.5	valid_trial	expected	FALSE	1199
220	s01	220	36:45:54	0.1833333	Choose a square with about 40 dots	34	Vague	Numeric	RtoL	Small	0.5	-0.5	0.5	-0.5	valid_trial	extreme	FALSE	1804
221	s01	221	06:15:24	0.4875	Choose the square with the fewest dots	38	Crisp	Verbal	LtoR	Small	-0.5	0.5	-0.5	-0.5	valid_trial	expected	FALSE	1254
222	s01	222	16:25:34	0.3123529	Choose the square with the fewest dots	38	Crisp	Verbal	LtoR	Small	-0.5	0.5	-0.5	-0.5	valid_trial	expected	FALSE	1291
223	s01	223	26:35:44	0.2308442	Choose a square with about 30 dots	34	Vague	Numeric	RtoL	Small	0.5	-0.5	0.5	-0.5	valid_trial	extreme	FALSE	1175
224	s01	224	36:45:54	0.1833333	Choose the square with the fewest dots	38	Crisp	Verbal	RtoL	Small	-0.5	0.5	0.5	-0.5	valid_trial	extreme	FALSE	1938
225	s01	225	06:15:24	0.4875	Choose a square with about 10 dots	34	Vague	Numeric	LtoR	Small	0.5	-0.5	-0.5	-0.5	valid_trial	borderline	TRUE	2501
226	s01	226	16:25:34	0.3123529	Choose a square with about 30 dots	34	Vague	Numeric	LtoR	Large	0.5	-0.5	-0.5	0.5	valid_trial	expected	FALSE	1986
227	s01	227	26:35:44	0.2308442	Choose a square with about 30 dots	34	Vague	Numeric	LtoR	Small	0.5	-0.5	-0.5	-0.5	valid_trial	extreme	FALSE	1378
228	s01	228	36:45:54	0.1833333	Choose a square with few dots	29	Vague	Verbal	RtoL	Small	0.5	0.5	0.5	-0.5	valid_trial	borderline	TRUE	3158
229	s01	229	06:15:24	0.4875	Choose the square with the most dots	36	Crisp	Verbal	RtoL	Large	-0.5	0.5	0.5	0.5	valid_trial	expected	FALSE	1427
230	s01	230	16:25:34	0.3123529	Choose the square with the most dots	36	Crisp	Verbal	LtoR	Large	-0.5	0.5	-0.5	0.5	valid_trial	expected	FALSE	1218
231	s01	231	26:35:44	0.2308442	Choose a square with about 40 dots	34	Vague	Numeric	RtoL	Large	0.5	-0.5	0.5	0.5	valid_trial	expected	FALSE	1063
232	s01	232	36:45:54	0.1833333	Choose the square with 54 dots	30	Crisp	Numeric	RtoL	Large	-0.5	-0.5	0.5	0.5	valid_trial	expected	FALSE	1297
233	s01	233	06:15:24	0.4875	Choose the square with 24 dots	30	Crisp	Numeric	LtoR	Large	-0.5	-0.5	-0.5	0.5	valid_trial	expected	FALSE	2573
234	s01	234	16:25:34	0.3123529	Choose a square with about 20 dots	34	Vague	Numeric	LtoR	Small	0.5	-0.5	-0.5	-0.5	valid_trial	borderline	TRUE	2250
235	s01	235	26:35:44	0.2308442	Choose a square with many dots	30	Vague	Verbal	RtoL	Large	0.5	0.5	0.5	0.5	valid_trial	expected	FALSE	1457
236	s01	236	36:45:54	0.1833333	Choose the square with the most dots	36	Crisp	Verbal	LtoR	Large	-0.5	0.5	-0.5	0.5	valid_trial	expected	FALSE	1118
237	s01	237	06:15:24	0.4875	Choose a square with many dots	30	Vague	Verbal	RtoL	Large	0.5	0.5	0.5	0.5	valid_trial	expected	FALSE	2245
238	s01	238	16:25:34	0.3123529	Choose a square with about 20 dots	34	Vague	Numeric	RtoL	Small	0.5	-0.5	0.5	-0.5	valid_trial	borderline	TRUE	2330
239	s01	239	26:35:44	0.2308442	Choose the square with 26 dots	30	Crisp	Numeric	RtoL	Small	-0.5	-0.5	0.5	-0.5	valid_trial	borderline	TRUE	3040
240	s01	240	36:45:54	0.1833333	Choose the square with the most dots	36	Crisp	Verbal	RtoL	Large	-0.5	0.5	0.5	0.5	valid_trial	expected	FALSE	804
241	s01	241	06:15:24	0.4875	Choose the square with 6 dots	29	Crisp	Numeric	RtoL	Small	-0.5	-0.5	0.5	-0.5	valid_trial	expected	FALSE	1247
242	s01	242	16:25:34	0.3123529	Choose the square with 16 dots	30	Crisp	Numeric	RtoL	Small	-0.5	-0.5	0.5	-0.5	valid_trial	expected	FALSE	2478
243	s01	243	26:35:44	0.2308442	Choose a square with about 40 dots	34	Vague	Numeric	LtoR	Large	0.5	-0.5	-0.5	0.5	valid_trial	expected	FALSE	1475
244	s01	244	36:45:54	0.1833333	Choose a square with about 50 dots	34	Vague	Numeric	LtoR	Large	0.5	-0.5	-0.5	0.5	valid_trial	expected	FALSE	1433
245	s01	245	06:15:24	0.4875	Choose the square with 24 dots	30	Crisp	Numeric	RtoL	Large	-0.5	-0.5	0.5	0.5	valid_trial	expected	FALSE	1822
246	s01	246	16:25:34	0.3123529	Choose a square with few dots	29	Vague	Verbal	RtoL	Small	0.5	0.5	0.5	-0.5	valid_trial	expected	FALSE	1782
247	s01	247	26:35:44	0.2308442	Choose the square with 26 dots	30	Crisp	Numeric	LtoR	Small	-0.5	-0.5	-0.5	-0.5	valid_trial	borderline	TRUE	1448
248	s01	248	36:45:54	0.1833333	Choose a square with many dots	30	Vague	Verbal	RtoL	Large	0.5	0.5	0.5	0.5	valid_trial	expected	FALSE	1679
249	s01	249	06:15:24	0.4875	Choose a square with few dots	29	Vague	Verbal	LtoR	Small	0.5	0.5	-0.5	-0.5	valid_trial	expected	FALSE	1052
250	s01	250	16:25:34	0.3123529	Choose the square with the most dots	36	Crisp	Verbal	RtoL	Large	-0.5	0.5	0.5	0.5	valid_trial	expected	FALSE	1151
251	s01	251	26:35:44	0.2308442	Choose the square with the fewest dots	38	Crisp	Verbal	RtoL	Small	-0.5	0.5	0.5	-0.5	valid_trial	expected	FALSE	2248
252	s01	252	36:45:54	0.1833333	Choose a square with about 40 dots	34	Vague	Numeric	LtoR	Small	0.5	-0.5	-0.5	-0.5	valid_trial	extreme	FALSE	1766
253	s01	253	06:15:24	0.4875	Choose a square with about 20 dots	34	Vague	Numeric	RtoL	Large	0.5	-0.5	0.5	0.5	valid_trial	borderline	TRUE	2872
254	s01	254	16:25:34	0.3123529	Choose the square with the fewest dots	38	Crisp	Verbal	RtoL	Small	-0.5	0.5	0.5	-0.5	valid_trial	expected	FALSE	2537
255	s01	255	26:35:44	0.2308442	Choose the square with the most dots	36	Crisp	Verbal	LtoR	Large	-0.5	0.5	-0.5	0.5	valid_trial	expected	FALSE	1008
256	s01	256	36:45:54	0.1833333	Choose a square with few dots	29	Vague	Verbal	LtoR	Small	0.5	0.5	-0.5	-0.5	valid_trial	expected	FALSE	1476
257	s02	1	06:15:24	0.4875	Choose a square with about 10 dots	34	Vague	Numeric	RtoL	Small	0.5	-0.5	0.5	-0.5	valid_trial	borderline	TRUE	1915
258	s02	2	16:25:34	0.3123529	Choose the square with 16 dots	30	Crisp	Numeric	LtoR	Small	-0.5	-0.5	-0.5	-0.5	valid_trial	borderline	TRUE	1617
259	s02	3	26:35:44	0.2308442	Choose the square with 44 dots	30	Crisp	Numeric	LtoR	Large	-0.5	-0.5	-0.5	0.5	valid_trial	expected	FALSE	1150
260	s02	4	36:45:54	0.1833333	Choose the square with the fewest dots	38	Crisp	Verbal	LtoR	Small	-0.5	0.5	-0.5	-0.5	valid_trial	expected	FALSE	1828
261	s02	5	06:15:24	0.4875	Choose a square with many dots	30	Vague	Verbal	RtoL	Large	0.5	0.5	0.5	0.5	valid_trial	expected	FALSE	1441
262	s02	6	16:25:34	0.3123529	Choose a square with few dots	29	Vague	Verbal	RtoL	Small	0.5	0.5	0.5	-0.5	valid_trial	extreme	FALSE	1981
263	s02	7	26:35:44	0.2308442	Choose the square with the most dots	36	Crisp	Verbal	LtoR	Large	-0.5	0.5	-0.5	0.5	valid_trial	expected	FALSE	1214
264	s02	8	36:45:54	0.1833333	Choose the square with the fewest dots	38	Crisp	Verbal	RtoL	Small	-0.5	0.5	0.5	-0.5	valid_trial	expected	FALSE	1435
265	s02	9	06:15:24	0.4875	Choose a square with many dots	30	Vague	Verbal	LtoR	Large	0.5	0.5	-0.5	0.5	valid_trial	expected	FALSE	1627
266	s02	10	16:25:34	0.3123529	Choose a square with many dots	30	Vague	Verbal	LtoR	Large	0.5	0.5	-0.5	0.5	valid_trial	expected	FALSE	1032
267	s02	11	26:35:44	0.2308442	Choose a square with few dots	29	Vague	Verbal	RtoL	Small	0.5	0.5	0.5	-0.5	valid_trial	extreme	FALSE	769
268	s02	12	36:45:54	0.1833333	Choose a square with about 50 dots	34	Vague	Numeric	RtoL	Large	0.5	-0.5	0.5	0.5	valid_trial	expected	FALSE	1040
269	s02	13	06:15:24	0.4875	Choose a square with few dots	29	Vague	Verbal	LtoR	Small	0.5	0.5	-0.5	-0.5	valid_trial	expected	FALSE	1353
270	s02	14	16:25:34	0.3123529	Choose a square with about 30 dots	34	Vague	Numeric	RtoL	Large	0.5	-0.5	0.5	0.5	valid_trial	borderline	TRUE	1245
271	s02	15	26:35:44	0.2308442	Choose the square with the fewest dots	38	Crisp	Verbal	LtoR	Small	-0.5	0.5	-0.5	-0.5	valid_trial	expected	FALSE	1967
272	s02	16	36:45:54	0.1833333	Choose a square with about 40 dots	34	Vague	Numeric	RtoL	Small	0.5	-0.5	0.5	-0.5	valid_trial	borderline	TRUE	1677
273	s02	17	06:15:24	0.4875	Choose a square with about 20 dots	34	Vague	Numeric	RtoL	Large	0.5	-0.5	0.5	0.5	valid_trial	borderline	TRUE	1620
274	s02	18	16:25:34	0.3123529	Choose a square with about 20 dots	34	Vague	Numeric	RtoL	Small	0.5	-0.5	0.5	-0.5	valid_trial	expected	FALSE	1863
275	s02	19	26:35:44	0.2308442	Choose the square with 26 dots	30	Crisp	Numeric	LtoR	Small	-0.5	-0.5	-0.5	-0.5	valid_trial	borderline	TRUE	1337
276	s02	20	36:45:54	0.1833333	Choose a square with many dots	30	Vague	Verbal	RtoL	Large	0.5	0.5	0.5	0.5	valid_trial	borderline	TRUE	1406
277	s02	21	06:15:24	0.4875	Choose the square with 6 dots	29	Crisp	Numeric	LtoR	Small	-0.5	-0.5	-0.5	-0.5	valid_trial	expected	FALSE	987
278	s02	22	16:25:34	0.3123529	Choose the square with the most dots	36	Crisp	Verbal	LtoR	Large	-0.5	0.5	-0.5	0.5	valid_trial	expected	FALSE	1198
279	s02	23	26:35:44	0.2308442	Choose the square with 26 dots	30	Crisp	Numeric	RtoL	Small	-0.5	-0.5	0.5	-0.5	valid_trial	borderline	TRUE	967
280	s02	24	36:45:54	0.1833333	Choose a square with few dots	29	Vague	Verbal	RtoL	Small	0.5	0.5	0.5	-0.5	valid_trial	expected	FALSE	1649
281	s02	25	06:15:24	0.4875	Choose the square with the fewest dots	38	Crisp	Verbal	RtoL	Small	-0.5	0.5	0.5	-0.5	valid_trial	borderline	TRUE	1588
282	s02	26	16:25:34	0.3123529	Choose the square with 34 dots	30	Crisp	Numeric	RtoL	Large	-0.5	-0.5	0.5	0.5	valid_trial	borderline	TRUE	943
283	s02	27	26:35:44	0.2308442	Choose a square with many dots	30	Vague	Verbal	LtoR	Large	0.5	0.5	-0.5	0.5	valid_trial	borderline	TRUE	1038
284	s02	28	36:45:54	0.1833333	Choose a square with about 40 dots	34	Vague	Numeric	LtoR	Small	0.5	-0.5	-0.5	-0.5	valid_trial	expected	FALSE	1784
285	s02	29	06:15:24	0.4875	Choose the square with the fewest dots	38	Crisp	Verbal	LtoR	Small	-0.5	0.5	-0.5	-0.5	valid_trial	expected	FALSE	1221
286	s02	30	16:25:34	0.3123529	Choose a square with about 20 dots	34	Vague	Numeric	LtoR	Small	0.5	-0.5	-0.5	-0.5	valid_trial	expected	FALSE	1209
287	s02	31	26:35:44	0.2308442	Choose a square with about 30 dots	34	Vague	Numeric	LtoR	Small	0.5	-0.5	-0.5	-0.5	valid_trial	borderline	TRUE	1666
288	s02	32	36:45:54	0.1833333	Choose a square with about 50 dots	34	Vague	Numeric	LtoR	Large	0.5	-0.5	-0.5	0.5	valid_trial	expected	FALSE	911
289	s02	33	06:15:24	0.4875	Choose a square with about 20 dots	34	Vague	Numeric	LtoR	Large	0.5	-0.5	-0.5	0.5	valid_trial	borderline	TRUE	1938
290	s02	34	16:25:34	0.3123529	Choose a square with many dots	30	Vague	Verbal	RtoL	Large	0.5	0.5	0.5	0.5	valid_trial	borderline	TRUE	1761
291	s02	35	26:35:44	0.2308442	Choose a square with many dots	30	Vague	Verbal	RtoL	Large	0.5	0.5	0.5	0.5	valid_trial	borderline	TRUE	1900
292	s02	36	36:45:54	0.1833333	Choose a square with few dots	29	Vague	Verbal	LtoR	Small	0.5	0.5	-0.5	-0.5	valid_trial	expected	FALSE	1753
293	s02	37	06:15:24	0.4875	Choose the square with the most dots	36	Crisp	Verbal	LtoR	Large	-0.5	0.5	-0.5	0.5	valid_trial	expected	FALSE	745
294	s02	38	16:25:34	0.3123529	Choose the square with the fewest dots	38	Crisp	Verbal	LtoR	Small	-0.5	0.5	-0.5	-0.5	valid_trial	expected	FALSE	1886
295	s02	39	26:35:44	0.2308442	Choose a square with few dots	29	Vague	Verbal	LtoR	Small	0.5	0.5	-0.5	-0.5	valid_trial	expected	FALSE	1326
296	s02	40	36:45:54	0.1833333	Choose the square with 54 dots	30	Crisp	Numeric	RtoL	Large	-0.5	-0.5	0.5	0.5	valid_trial	extreme	FALSE	1208
297	s02	41	06:15:24	0.4875	Choose the square with the most dots	36	Crisp	Verbal	RtoL	Large	-0.5	0.5	0.5	0.5	valid_trial	expected	FALSE	1282
298	s02	42	16:25:34	0.3123529	Choose a square with about 30 dots	34	Vague	Numeric	LtoR	Large	0.5	-0.5	-0.5	0.5	valid_trial	borderline	TRUE	859
299	s02	43	26:35:44	0.2308442	Choose a square with about 40 dots	34	Vague	Numeric	RtoL	Large	0.5	-0.5	0.5	0.5	valid_trial	extreme	FALSE	1252
300	s02	44	36:45:54	0.1833333	Choose the square with 36 dots	30	Crisp	Numeric	LtoR	Small	-0.5	-0.5	-0.5	-0.5	valid_trial	expected	FALSE	1426
301	s02	45	06:15:24	0.4875	Choose the square with 24 dots	30	Crisp	Numeric	RtoL	Large	-0.5	-0.5	0.5	0.5	valid_trial	expected	FALSE	1591
302	s02	46	16:25:34	0.3123529	Choose a square with few dots	29	Vague	Verbal	LtoR	Small	0.5	0.5	-0.5	-0.5	valid_trial	expected	FALSE	1375
303	s02	47	26:35:44	0.2308442	Choose a square with about 30 dots	34	Vague	Numeric	RtoL	Small	0.5	-0.5	0.5	-0.5	valid_trial	borderline	TRUE	1328
304	s02	48	36:45:54	0.1833333	Choose the square with the most dots	36	Crisp	Verbal	LtoR	Large	-0.5	0.5	-0.5	0.5	valid_trial	extreme	FALSE	2045
305	s02	49	06:15:24	0.4875	Choose a square with about 10 dots	34	Vague	Numeric	LtoR	Small	0.5	-0.5	-0.5	-0.5	valid_trial	borderline	TRUE	1562
306	s02	50	16:25:34	0.3123529	Choose the square with 34 dots	30	Crisp	Numeric	LtoR	Large	-0.5	-0.5	-0.5	0.5	valid_trial	borderline	TRUE	1242
307	s02	51	26:35:44	0.2308442	Choose the square with the most dots	36	Crisp	Verbal	RtoL	Large	-0.5	0.5	0.5	0.5	valid_trial	borderline	TRUE	2367
308	s02	52	36:45:54	0.1833333	Choose a square with many dots	30	Vague	Verbal	LtoR	Large	0.5	0.5	-0.5	0.5	valid_trial	expected	FALSE	1084
309	s02	53	06:15:24	0.4875	Choose the square with 6 dots	29	Crisp	Numeric	RtoL	Small	-0.5	-0.5	0.5	-0.5	valid_trial	expected	FALSE	1334
310	s02	54	16:25:34	0.3123529	Choose the square with the fewest dots	38	Crisp	Verbal	RtoL	Small	-0.5	0.5	0.5	-0.5	valid_trial	expected	FALSE	1088
311	s02	55	26:35:44	0.2308442	Choose the square with the fewest dots	38	Crisp	Verbal	RtoL	Small	-0.5	0.5	0.5	-0.5	valid_trial	expected	FALSE	1762
312	s02	56	36:45:54	0.1833333	Choose the square with the most dots	36	Crisp	Verbal	RtoL	Large	-0.5	0.5	0.5	0.5	valid_trial	expected	FALSE	1544
313	s02	57	06:15:24	0.4875	Choose the square with 24 dots	30	Crisp	Numeric	LtoR	Large	-0.5	-0.5	-0.5	0.5	valid_trial	expected	FALSE	2131
314	s02	58	16:25:34	0.3123529	Choose the square with the most dots	36	Crisp	Verbal	RtoL	Large	-0.5	0.5	0.5	0.5	valid_trial	expected	FALSE	1543
315	s02	59	26:35:44	0.2308442	Choose the square with 44 dots	30	Crisp	Numeric	RtoL	Large	-0.5	-0.5	0.5	0.5	valid_trial	expected	FALSE	833
316	s02	60	36:45:54	0.1833333	Choose the square with 36 dots	30	Crisp	Numeric	RtoL	Small	-0.5	-0.5	0.5	-0.5	valid_trial	borderline	TRUE	1088
317	s02	61	06:15:24	0.4875	Choose a square with few dots	29	Vague	Verbal	RtoL	Small	0.5	0.5	0.5	-0.5	valid_trial	expected	FALSE	885
318	s02	62	16:25:34	0.3123529	Choose the square with 16 dots	30	Crisp	Numeric	RtoL	Small	-0.5	-0.5	0.5	-0.5	valid_trial	expected	FALSE	1875
319	s02	63	26:35:44	0.2308442	Choose a square with about 40 dots	34	Vague	Numeric	LtoR	Large	0.5	-0.5	-0.5	0.5	valid_trial	borderline	TRUE	1788
320	s02	64	36:45:54	0.1833333	Choose the square with 54 dots	30	Crisp	Numeric	LtoR	Large	-0.5	-0.5	-0.5	0.5	valid_trial	expected	FALSE	1919
321	s02	65	06:15:24	0.4875	Choose the square with 24 dots	30	Crisp	Numeric	RtoL	Large	-0.5	-0.5	0.5	0.5	valid_trial	expected	FALSE	5056
322	s02	66	16:25:34	0.3123529	Choose the square with 34 dots	30	Crisp	Numeric	RtoL	Large	-0.5	-0.5	0.5	0.5	valid_trial	borderline	TRUE	1777
323	s02	67	26:35:44	0.2308442	Choose the square with the most dots	36	Crisp	Verbal	LtoR	Large	-0.5	0.5	-0.5	0.5	valid_trial	expected	FALSE	657
324	s02	68	36:45:54	0.1833333	Choose the square with the most dots	36	Crisp	Verbal	LtoR	Large	-0.5	0.5	-0.5	0.5	valid_trial	expected	FALSE	1944
325	s02	69	06:15:24	0.4875	Choose the square with the most dots	36	Crisp	Verbal	LtoR	Large	-0.5	0.5	-0.5	0.5	valid_trial	expected	FALSE	1443
326	s02	70	16:25:34	0.3123529	Choose the square with the fewest dots	38	Crisp	Verbal	LtoR	Small	-0.5	0.5	-0.5	-0.5	valid_trial	expected	FALSE	1506
327	s02	71	26:35:44	0.2308442	Choose a square with few dots	29	Vague	Verbal	RtoL	Small	0.5	0.5	0.5	-0.5	valid_trial	expected	FALSE	776
328	s02	72	36:45:54	0.1833333	Choose the square with the fewest dots	38	Crisp	Verbal	RtoL	Small	-0.5	0.5	0.5	-0.5	valid_trial	expected	FALSE	1356
329	s02	73	06:15:24	0.4875	Choose the square with 24 dots	30	Crisp	Numeric	LtoR	Large	-0.5	-0.5	-0.5	0.5	valid_trial	borderline	TRUE	11150
330	s02	74	16:25:34	0.3123529	Choose a square with about 20 dots	34	Vague	Numeric	LtoR	Small	0.5	-0.5	-0.5	-0.5	valid_trial	expected	FALSE	2902
331	s02	75	26:35:44	0.2308442	Choose a square with about 30 dots	34	Vague	Numeric	RtoL	Small	0.5	-0.5	0.5	-0.5	valid_trial	expected	FALSE	1645
332	s02	76	36:45:54	0.1833333	Choose a square with many dots	30	Vague	Verbal	RtoL	Large	0.5	0.5	0.5	0.5	valid_trial	expected	FALSE	1079
333	s02	77	06:15:24	0.4875	Choose a square with about 20 dots	34	Vague	Numeric	LtoR	Large	0.5	-0.5	-0.5	0.5	valid_trial	borderline	TRUE	1538
334	s02	78	16:25:34	0.3123529	Choose a square with few dots	29	Vague	Verbal	RtoL	Small	0.5	0.5	0.5	-0.5	valid_trial	expected	FALSE	2314
335	s02	79	26:35:44	0.2308442	Choose a square with about 40 dots	34	Vague	Numeric	LtoR	Large	0.5	-0.5	-0.5	0.5	valid_trial	borderline	TRUE	1353
336	s02	80	36:45:54	0.1833333	Choose a square with about 50 dots	34	Vague	Numeric	LtoR	Large	0.5	-0.5	-0.5	0.5	valid_trial	expected	FALSE	2284
337	s02	81	06:15:24	0.4875	Choose the square with the most dots	36	Crisp	Verbal	RtoL	Large	-0.5	0.5	0.5	0.5	valid_trial	expected	FALSE	684
338	s02	82	16:25:34	0.3123529	Choose a square with about 30 dots	34	Vague	Numeric	LtoR	Large	0.5	-0.5	-0.5	0.5	valid_trial	extreme	FALSE	2169
339	s02	83	26:35:44	0.2308442	Choose a square with many dots	30	Vague	Verbal	LtoR	Large	0.5	0.5	-0.5	0.5	valid_trial	expected	FALSE	1040
340	s02	84	36:45:54	0.1833333	Choose the square with 36 dots	30	Crisp	Numeric	RtoL	Small	-0.5	-0.5	0.5	-0.5	valid_trial	expected	FALSE	1065
341	s02	85	06:15:24	0.4875	Choose a square with few dots	29	Vague	Verbal	LtoR	Small	0.5	0.5	-0.5	-0.5	valid_trial	expected	FALSE	875
342	s02	86	16:25:34	0.3123529	Choose the square with 16 dots	30	Crisp	Numeric	LtoR	Small	-0.5	-0.5	-0.5	-0.5	valid_trial	borderline	TRUE	5723
343	s02	87	26:35:44	0.2308442	Choose a square with many dots	30	Vague	Verbal	RtoL	Large	0.5	0.5	0.5	0.5	valid_trial	expected	FALSE	1089
344	s02	88	36:45:54	0.1833333	Choose a square with many dots	30	Vague	Verbal	LtoR	Large	0.5	0.5	-0.5	0.5	valid_trial	expected	FALSE	1761
345	s02	89	06:15:24	0.4875	Choose a square with about 10 dots	34	Vague	Numeric	LtoR	Small	0.5	-0.5	-0.5	-0.5	valid_trial	borderline	TRUE	2302
346	s02	90	16:25:34	0.3123529	Choose the square with 34 dots	30	Crisp	Numeric	LtoR	Large	-0.5	-0.5	-0.5	0.5	valid_trial	borderline	TRUE	2708
347	s02	91	26:35:44	0.2308442	Choose a square with few dots	29	Vague	Verbal	LtoR	Small	0.5	0.5	-0.5	-0.5	valid_trial	expected	FALSE	814
348	s02	92	36:45:54	0.1833333	Choose the square with the fewest dots	38	Crisp	Verbal	LtoR	Small	-0.5	0.5	-0.5	-0.5	valid_trial	borderline	TRUE	4531
349	s02	93	06:15:24	0.4875	Choose a square with many dots	30	Vague	Verbal	LtoR	Large	0.5	0.5	-0.5	0.5	valid_trial	expected	FALSE	956
350	s02	94	16:25:34	0.3123529	Choose the square with the fewest dots	38	Crisp	Verbal	RtoL	Small	-0.5	0.5	0.5	-0.5	valid_trial	expected	FALSE	929
351	s02	95	26:35:44	0.2308442	Choose the square with the most dots	36	Crisp	Verbal	RtoL	Large	-0.5	0.5	0.5	0.5	valid_trial	expected	FALSE	1718
352	s02	96	36:45:54	0.1833333	Choose a square with about 50 dots	34	Vague	Numeric	RtoL	Large	0.5	-0.5	0.5	0.5	valid_trial	expected	FALSE	1528
353	s02	97	06:15:24	0.4875	Choose a square with about 10 dots	34	Vague	Numeric	RtoL	Small	0.5	-0.5	0.5	-0.5	valid_trial	borderline	TRUE	1561
354	s02	98	16:25:34	0.3123529	Choose a square with about 20 dots	34	Vague	Numeric	RtoL	Small	0.5	-0.5	0.5	-0.5	valid_trial	expected	FALSE	1821
355	s02	99	26:35:44	0.2308442	Choose the square with 44 dots	30	Crisp	Numeric	LtoR	Large	-0.5	-0.5	-0.5	0.5	valid_trial	borderline	TRUE	1382
356	s02	100	36:45:54	0.1833333	Choose a square with few dots	29	Vague	Verbal	LtoR	Small	0.5	0.5	-0.5	-0.5	valid_trial	expected	FALSE	2169
357	s02	101	06:15:24	0.4875	Choose the square with 6 dots	29	Crisp	Numeric	RtoL	Small	-0.5	-0.5	0.5	-0.5	valid_trial	expected	FALSE	1000
358	s02	102	16:25:34	0.3123529	Choose a square with about 30 dots	34	Vague	Numeric	RtoL	Large	0.5	-0.5	0.5	0.5	valid_trial	expected	FALSE	1342
359	s02	103	26:35:44	0.2308442	Choose the square with the fewest dots	38	Crisp	Verbal	RtoL	Small	-0.5	0.5	0.5	-0.5	valid_trial	expected	FALSE	1392
360	s02	104	36:45:54	0.1833333	Choose the square with 54 dots	30	Crisp	Numeric	RtoL	Large	-0.5	-0.5	0.5	0.5	valid_trial	expected	FALSE	2682
361	s02	105	06:15:24	0.4875	Choose a square with many dots	30	Vague	Verbal	RtoL	Large	0.5	0.5	0.5	0.5	valid_trial	expected	FALSE	585
362	s02	106	16:25:34	0.3123529	Choose a square with many dots	30	Vague	Verbal	RtoL	Large	0.5	0.5	0.5	0.5	valid_trial	expected	FALSE	1306
363	s02	107	26:35:44	0.2308442	Choose the square with 26 dots	30	Crisp	Numeric	RtoL	Small	-0.5	-0.5	0.5	-0.5	valid_trial	borderline	TRUE	1030
364	s02	108	36:45:54	0.1833333	Choose a square with about 40 dots	34	Vague	Numeric	RtoL	Small	0.5	-0.5	0.5	-0.5	valid_trial	expected	FALSE	1286
365	s02	109	06:15:24	0.4875	Choose a square with few dots	29	Vague	Verbal	RtoL	Small	0.5	0.5	0.5	-0.5	valid_trial	expected	FALSE	1767
366	s02	110	16:25:34	0.3123529	Choose the square with the most dots	36	Crisp	Verbal	LtoR	Large	-0.5	0.5	-0.5	0.5	valid_trial	expected	FALSE	975
367	s02	111	26:35:44	0.2308442	Choose the square with 26 dots	30	Crisp	Numeric	LtoR	Small	-0.5	-0.5	-0.5	-0.5	valid_trial	borderline	TRUE	1444
368	s02	112	36:45:54	0.1833333	Choose the square with the most dots	36	Crisp	Verbal	RtoL	Large	-0.5	0.5	0.5	0.5	valid_trial	expected	FALSE	1554
369	s02	113	06:15:24	0.4875	Choose a square with about 20 dots	34	Vague	Numeric	RtoL	Large	0.5	-0.5	0.5	0.5	valid_trial	borderline	TRUE	1157
370	s02	114	16:25:34	0.3123529	Choose the square with 16 dots	30	Crisp	Numeric	RtoL	Small	-0.5	-0.5	0.5	-0.5	valid_trial	expected	FALSE	1610
371	s02	115	26:35:44	0.2308442	Choose a square with about 40 dots	34	Vague	Numeric	RtoL	Large	0.5	-0.5	0.5	0.5	valid_trial	expected	FALSE	1337
372	s02	116	36:45:54	0.1833333	Choose a square with few dots	29	Vague	Verbal	RtoL	Small	0.5	0.5	0.5	-0.5	valid_trial	extreme	FALSE	1841
373	s02	117	06:15:24	0.4875	Choose the square with the fewest dots	38	Crisp	Verbal	LtoR	Small	-0.5	0.5	-0.5	-0.5	valid_trial	expected	FALSE	1896
374	s02	118	16:25:34	0.3123529	Choose a square with few dots	29	Vague	Verbal	LtoR	Small	0.5	0.5	-0.5	-0.5	valid_trial	extreme	FALSE	1273
375	s02	119	26:35:44	0.2308442	Choose a square with about 30 dots	34	Vague	Numeric	LtoR	Small	0.5	-0.5	-0.5	-0.5	valid_trial	borderline	TRUE	1135
376	s02	120	36:45:54	0.1833333	Choose a square with about 40 dots	34	Vague	Numeric	LtoR	Small	0.5	-0.5	-0.5	-0.5	valid_trial	expected	FALSE	1291
377	s02	121	06:15:24	0.4875	Choose the square with the fewest dots	38	Crisp	Verbal	RtoL	Small	-0.5	0.5	0.5	-0.5	valid_trial	expected	FALSE	1143
378	s02	122	16:25:34	0.3123529	Choose the square with the most dots	36	Crisp	Verbal	RtoL	Large	-0.5	0.5	0.5	0.5	valid_trial	expected	FALSE	760
379	s02	123	26:35:44	0.2308442	Choose the square with 44 dots	30	Crisp	Numeric	RtoL	Large	-0.5	-0.5	0.5	0.5	valid_trial	expected	FALSE	2446
380	s02	124	36:45:54	0.1833333	Choose the square with 54 dots	30	Crisp	Numeric	LtoR	Large	-0.5	-0.5	-0.5	0.5	valid_trial	expected	FALSE	655
381	s02	125	06:15:24	0.4875	Choose the square with 6 dots	29	Crisp	Numeric	LtoR	Small	-0.5	-0.5	-0.5	-0.5	valid_trial	expected	FALSE	1558
382	s02	126	16:25:34	0.3123529	Choose a square with many dots	30	Vague	Verbal	LtoR	Large	0.5	0.5	-0.5	0.5	valid_trial	expected	FALSE	1048
383	s02	127	26:35:44	0.2308442	Choose the square with the fewest dots	38	Crisp	Verbal	LtoR	Small	-0.5	0.5	-0.5	-0.5	valid_trial	expected	FALSE	1380
384	s02	128	36:45:54	0.1833333	Choose the square with 36 dots	30	Crisp	Numeric	LtoR	Small	-0.5	-0.5	-0.5	-0.5	valid_trial	expected	FALSE	1317
385	s02	129	06:15:24	0.4875	Choose a square with about 10 dots	34	Vague	Numeric	RtoL	Small	0.5	-0.5	0.5	-0.5	valid_trial	borderline	TRUE	710
386	s02	130	16:25:34	0.3123529	Choose a square with about 20 dots	34	Vague	Numeric	RtoL	Small	0.5	-0.5	0.5	-0.5	valid_trial	expected	FALSE	753
387	s02	131	26:35:44	0.2308442	Choose a square with many dots	30	Vague	Verbal	RtoL	Large	0.5	0.5	0.5	0.5	valid_trial	expected	FALSE	450
388	s02	132	36:45:54	0.1833333	Choose a square with about 50 dots	34	Vague	Numeric	LtoR	Large	0.5	-0.5	-0.5	0.5	valid_trial	borderline	TRUE	907
389	s02	133	06:15:24	0.4875	Choose the square with 6 dots	29	Crisp	Numeric	RtoL	Small	-0.5	-0.5	0.5	-0.5	valid_trial	expected	FALSE	713
390	s02	134	16:25:34	0.3123529	Choose a square with many dots	30	Vague	Verbal	RtoL	Large	0.5	0.5	0.5	0.5	valid_trial	expected	FALSE	574
391	s02	135	26:35:44	0.2308442	Choose a square with few dots	29	Vague	Verbal	LtoR	Small	0.5	0.5	-0.5	-0.5	valid_trial	expected	FALSE	1150
392	s02	136	36:45:54	0.1833333	Choose a square with many dots	30	Vague	Verbal	LtoR	Large	0.5	0.5	-0.5	0.5	valid_trial	expected	FALSE	621
393	s02	137	06:15:24	0.4875	Choose the square with the fewest dots	38	Crisp	Verbal	RtoL	Small	-0.5	0.5	0.5	-0.5	valid_trial	borderline	TRUE	876
394	s02	138	16:25:34	0.3123529	Choose the square with the fewest dots	38	Crisp	Verbal	RtoL	Small	-0.5	0.5	0.5	-0.5	valid_trial	expected	FALSE	1821
395	s02	139	26:35:44	0.2308442	Choose the square with the most dots	36	Crisp	Verbal	RtoL	Large	-0.5	0.5	0.5	0.5	valid_trial	expected	FALSE	1850
396	s02	140	36:45:54	0.1833333	Choose a square with few dots	29	Vague	Verbal	RtoL	Small	0.5	0.5	0.5	-0.5	valid_trial	borderline	TRUE	1488
397	s02	141	06:15:24	0.4875	Choose a square with many dots	30	Vague	Verbal	RtoL	Large	0.5	0.5	0.5	0.5	valid_trial	expected	FALSE	1512
398	s02	142	16:25:34	0.3123529	Choose a square with few dots	29	Vague	Verbal	RtoL	Small	0.5	0.5	0.5	-0.5	valid_trial	expected	FALSE	1093
399	s02	143	26:35:44	0.2308442	Choose the square with 26 dots	30	Crisp	Numeric	LtoR	Small	-0.5	-0.5	-0.5	-0.5	valid_trial	expected	FALSE	1277
400	s02	144	36:45:54	0.1833333	Choose the square with 54 dots	30	Crisp	Numeric	LtoR	Large	-0.5	-0.5	-0.5	0.5	valid_trial	expected	FALSE	1531
401	s02	145	06:15:24	0.4875	Choose a square with few dots	29	Vague	Verbal	LtoR	Small	0.5	0.5	-0.5	-0.5	valid_trial	expected	FALSE	1238
402	s02	146	16:25:34	0.3123529	Choose the square with the most dots	36	Crisp	Verbal	LtoR	Large	-0.5	0.5	-0.5	0.5	valid_trial	borderline	TRUE	1203
403	s02	147	26:35:44	0.2308442	Choose a square with about 40 dots	34	Vague	Numeric	RtoL	Large	0.5	-0.5	0.5	0.5	valid_trial	extreme	FALSE	1590
404	s02	148	36:45:54	0.1833333	Choose a square with about 50 dots	34	Vague	Numeric	RtoL	Large	0.5	-0.5	0.5	0.5	valid_trial	borderline	TRUE	841
405	s02	149	06:15:24	0.4875	Choose the square with 24 dots	30	Crisp	Numeric	RtoL	Large	-0.5	-0.5	0.5	0.5	valid_trial	expected	FALSE	1306
406	s02	150	16:25:34	0.3123529	Choose the square with the fewest dots	38	Crisp	Verbal	LtoR	Small	-0.5	0.5	-0.5	-0.5	valid_trial	expected	FALSE	982
407	s02	151	26:35:44	0.2308442	Choose the square with 26 dots	30	Crisp	Numeric	RtoL	Small	-0.5	-0.5	0.5	-0.5	valid_trial	borderline	TRUE	910
408	s02	152	36:45:54	0.1833333	Choose the square with the most dots	36	Crisp	Verbal	RtoL	Large	-0.5	0.5	0.5	0.5	valid_trial	expected	FALSE	790
409	s02	153	06:15:24	0.4875	Choose a square with about 20 dots	34	Vague	Numeric	LtoR	Large	0.5	-0.5	-0.5	0.5	valid_trial	expected	FALSE	1696
410	s02	154	16:25:34	0.3123529	Choose a square with about 20 dots	34	Vague	Numeric	LtoR	Small	0.5	-0.5	-0.5	-0.5	valid_trial	expected	FALSE	1819
411	s02	155	26:35:44	0.2308442	Choose a square with few dots	29	Vague	Verbal	RtoL	Small	0.5	0.5	0.5	-0.5	valid_trial	expected	FALSE	697
412	s02	156	36:45:54	0.1833333	Choose a square with about 40 dots	34	Vague	Numeric	LtoR	Small	0.5	-0.5	-0.5	-0.5	valid_trial	expected	FALSE	819
413	s02	157	06:15:24	0.4875	Choose a square with about 10 dots	34	Vague	Numeric	LtoR	Small	0.5	-0.5	-0.5	-0.5	valid_trial	borderline	TRUE	1346
414	s02	158	16:25:34	0.3123529	Choose the square with 16 dots	30	Crisp	Numeric	LtoR	Small	-0.5	-0.5	-0.5	-0.5	valid_trial	borderline	TRUE	1673
415	s02	159	26:35:44	0.2308442	Choose the square with the most dots	36	Crisp	Verbal	LtoR	Large	-0.5	0.5	-0.5	0.5	valid_trial	extreme	FALSE	2824
416	s02	160	36:45:54	0.1833333	Choose a square with many dots	30	Vague	Verbal	RtoL	Large	0.5	0.5	0.5	0.5	valid_trial	extreme	FALSE	1659
417	s02	161	06:15:24	0.4875	Choose a square with about 20 dots	34	Vague	Numeric	RtoL	Large	0.5	-0.5	0.5	0.5	valid_trial	expected	FALSE	1058
418	s02	162	16:25:34	0.3123529	Choose the square with 34 dots	30	Crisp	Numeric	LtoR	Large	-0.5	-0.5	-0.5	0.5	valid_trial	borderline	TRUE	972
419	s02	163	26:35:44	0.2308442	Choose a square with about 30 dots	34	Vague	Numeric	LtoR	Small	0.5	-0.5	-0.5	-0.5	valid_trial	borderline	TRUE	1912
420	s02	164	36:45:54	0.1833333	Choose the square with 36 dots	30	Crisp	Numeric	LtoR	Small	-0.5	-0.5	-0.5	-0.5	valid_trial	expected	FALSE	1525
421	s02	165	06:15:24	0.4875	Choose the square with the fewest dots	38	Crisp	Verbal	LtoR	Small	-0.5	0.5	-0.5	-0.5	valid_trial	expected	FALSE	973
422	s02	166	16:25:34	0.3123529	Choose the square with 16 dots	30	Crisp	Numeric	RtoL	Small	-0.5	-0.5	0.5	-0.5	valid_trial	expected	FALSE	1111
423	s02	167	26:35:44	0.2308442	Choose the square with 44 dots	30	Crisp	Numeric	RtoL	Large	-0.5	-0.5	0.5	0.5	valid_trial	borderline	TRUE	1777
424	s02	168	36:45:54	0.1833333	Choose the square with the fewest dots	38	Crisp	Verbal	RtoL	Small	-0.5	0.5	0.5	-0.5	valid_trial	extreme	FALSE	2179
425	s02	169	06:15:24	0.4875	Choose a square with few dots	29	Vague	Verbal	RtoL	Small	0.5	0.5	0.5	-0.5	valid_trial	expected	FALSE	837
426	s02	170	16:25:34	0.3123529	Choose a square with about 30 dots	34	Vague	Numeric	RtoL	Large	0.5	-0.5	0.5	0.5	valid_trial	borderline	TRUE	2075
427	s02	171	26:35:44	0.2308442	Choose a square with about 40 dots	34	Vague	Numeric	LtoR	Large	0.5	-0.5	-0.5	0.5	valid_trial	borderline	TRUE	1401
428	s02	172	36:45:54	0.1833333	Choose the square with the fewest dots	38	Crisp	Verbal	LtoR	Small	-0.5	0.5	-0.5	-0.5	valid_trial	expected	FALSE	1300
429	s02	173	06:15:24	0.4875	Choose the square with the most dots	36	Crisp	Verbal	LtoR	Large	-0.5	0.5	-0.5	0.5	valid_trial	expected	FALSE	1562
430	s02	174	16:25:34	0.3123529	Choose the square with the most dots	36	Crisp	Verbal	RtoL	Large	-0.5	0.5	0.5	0.5	valid_trial	expected	FALSE	1781
431	s02	175	26:35:44	0.2308442	Choose a square with many dots	30	Vague	Verbal	LtoR	Large	0.5	0.5	-0.5	0.5	valid_trial	borderline	TRUE	1823
432	s02	176	36:45:54	0.1833333	Choose the square with 54 dots	30	Crisp	Numeric	RtoL	Large	-0.5	-0.5	0.5	0.5	valid_trial	expected	FALSE	1131
433	s02	177	06:15:24	0.4875	Choose the square with the most dots	36	Crisp	Verbal	RtoL	Large	-0.5	0.5	0.5	0.5	valid_trial	expected	FALSE	1122
434	s02	178	16:25:34	0.3123529	Choose a square with about 30 dots	34	Vague	Numeric	LtoR	Large	0.5	-0.5	-0.5	0.5	valid_trial	borderline	TRUE	3307
435	s02	179	26:35:44	0.2308442	Choose the square with the fewest dots	38	Crisp	Verbal	RtoL	Small	-0.5	0.5	0.5	-0.5	valid_trial	expected	FALSE	955
436	s02	180	36:45:54	0.1833333	Choose a square with about 40 dots	34	Vague	Numeric	RtoL	Small	0.5	-0.5	0.5	-0.5	valid_trial	extreme	FALSE	892
437	s02	181	06:15:24	0.4875	Choose a square with many dots	30	Vague	Verbal	LtoR	Large	0.5	0.5	-0.5	0.5	valid_trial	expected	FALSE	1681
438	s02	182	16:25:34	0.3123529	Choose a square with few dots	29	Vague	Verbal	LtoR	Small	0.5	0.5	-0.5	-0.5	valid_trial	expected	FALSE	1158
439	s02	183	26:35:44	0.2308442	Choose the square with the fewest dots	38	Crisp	Verbal	LtoR	Small	-0.5	0.5	-0.5	-0.5	valid_trial	expected	FALSE	1240
440	s02	184	36:45:54	0.1833333	Choose the square with the most dots	36	Crisp	Verbal	LtoR	Large	-0.5	0.5	-0.5	0.5	valid_trial	expected	FALSE	1346
441	s02	185	06:15:24	0.4875	Choose the square with 6 dots	29	Crisp	Numeric	LtoR	Small	-0.5	-0.5	-0.5	-0.5	valid_trial	expected	FALSE	1170
442	s02	186	16:25:34	0.3123529	Choose the square with 34 dots	30	Crisp	Numeric	RtoL	Large	-0.5	-0.5	0.5	0.5	valid_trial	borderline	TRUE	1727
443	s02	187	26:35:44	0.2308442	Choose the square with 44 dots	30	Crisp	Numeric	LtoR	Large	-0.5	-0.5	-0.5	0.5	valid_trial	expected	FALSE	1927
444	s02	188	36:45:54	0.1833333	Choose a square with few dots	29	Vague	Verbal	LtoR	Small	0.5	0.5	-0.5	-0.5	valid_trial	expected	FALSE	924
445	s02	189	06:15:24	0.4875	Choose the square with 24 dots	30	Crisp	Numeric	LtoR	Large	-0.5	-0.5	-0.5	0.5	valid_trial	borderline	TRUE	1231
446	s02	190	16:25:34	0.3123529	Choose a square with many dots	30	Vague	Verbal	LtoR	Large	0.5	0.5	-0.5	0.5	valid_trial	expected	FALSE	2030
447	s02	191	26:35:44	0.2308442	Choose a square with about 30 dots	34	Vague	Numeric	RtoL	Small	0.5	-0.5	0.5	-0.5	valid_trial	borderline	TRUE	889
448	s02	192	36:45:54	0.1833333	Choose the square with 36 dots	30	Crisp	Numeric	RtoL	Small	-0.5	-0.5	0.5	-0.5	valid_trial	expected	FALSE	2383
449	s02	193	06:15:24	0.4875	Choose the square with 24 dots	30	Crisp	Numeric	LtoR	Large	-0.5	-0.5	-0.5	0.5	valid_trial	borderline	TRUE	727
450	s02	194	16:25:34	0.3123529	Choose a square with few dots	29	Vague	Verbal	LtoR	Small	0.5	0.5	-0.5	-0.5	valid_trial	borderline	TRUE	1334
451	s02	195	26:35:44	0.2308442	Choose the square with the fewest dots	38	Crisp	Verbal	RtoL	Small	-0.5	0.5	0.5	-0.5	valid_trial	expected	FALSE	995
452	s02	196	36:45:54	0.1833333	Choose the square with 54 dots	30	Crisp	Numeric	RtoL	Large	-0.5	-0.5	0.5	0.5	valid_trial	borderline	TRUE	1684
453	s02	197	06:15:24	0.4875	Choose the square with 6 dots	29	Crisp	Numeric	LtoR	Small	-0.5	-0.5	-0.5	-0.5	valid_trial	expected	FALSE	734
454	s02	198	16:25:34	0.3123529	Choose a square with few dots	29	Vague	Verbal	RtoL	Small	0.5	0.5	0.5	-0.5	valid_trial	expected	FALSE	754
455	s02	199	26:35:44	0.2308442	Choose a square with about 40 dots	34	Vague	Numeric	RtoL	Large	0.5	-0.5	0.5	0.5	valid_trial	borderline	TRUE	1629
456	s02	200	36:45:54	0.1833333	Choose the square with 54 dots	30	Crisp	Numeric	LtoR	Large	-0.5	-0.5	-0.5	0.5	valid_trial	borderline	TRUE	1583
457	s02	201	06:15:24	0.4875	Choose the square with 6 dots	29	Crisp	Numeric	RtoL	Small	-0.5	-0.5	0.5	-0.5	valid_trial	expected	FALSE	811
458	s02	202	16:25:34	0.3123529	Choose the square with 34 dots	30	Crisp	Numeric	RtoL	Large	-0.5	-0.5	0.5	0.5	valid_trial	borderline	TRUE	1547
459	s02	203	26:35:44	0.2308442	Choose a square with many dots	30	Vague	Verbal	RtoL	Large	0.5	0.5	0.5	0.5	valid_trial	expected	FALSE	1128
460	s02	204	36:45:54	0.1833333	Choose a square with about 40 dots	34	Vague	Numeric	RtoL	Small	0.5	-0.5	0.5	-0.5	valid_trial	extreme	FALSE	1158
461	s02	205	06:15:24	0.4875	Choose a square with about 10 dots	34	Vague	Numeric	RtoL	Small	0.5	-0.5	0.5	-0.5	valid_trial	borderline	TRUE	1119
462	s02	206	16:25:34	0.3123529	Choose a square with about 30 dots	34	Vague	Numeric	LtoR	Large	0.5	-0.5	-0.5	0.5	valid_trial	borderline	TRUE	1068
463	s02	207	26:35:44	0.2308442	Choose a square with about 30 dots	34	Vague	Numeric	RtoL	Small	0.5	-0.5	0.5	-0.5	valid_trial	expected	FALSE	1367
464	s02	208	36:45:54	0.1833333	Choose the square with 36 dots	30	Crisp	Numeric	LtoR	Small	-0.5	-0.5	-0.5	-0.5	valid_trial	expected	FALSE	1146
465	s02	209	06:15:24	0.4875	Choose a square with few dots	29	Vague	Verbal	RtoL	Small	0.5	0.5	0.5	-0.5	valid_trial	expected	FALSE	1273
466	s02	210	16:25:34	0.3123529	Choose a square with many dots	30	Vague	Verbal	RtoL	Large	0.5	0.5	0.5	0.5	valid_trial	expected	FALSE	1863
467	s02	211	26:35:44	0.2308442	Choose the square with the most dots	36	Crisp	Verbal	RtoL	Large	-0.5	0.5	0.5	0.5	valid_trial	expected	FALSE	1599
468	s02	212	36:45:54	0.1833333	Choose a square with few dots	29	Vague	Verbal	RtoL	Small	0.5	0.5	0.5	-0.5	valid_trial	expected	FALSE	1318
469	s02	213	06:15:24	0.4875	Choose a square with few dots	29	Vague	Verbal	LtoR	Small	0.5	0.5	-0.5	-0.5	valid_trial	expected	FALSE	1358
470	s02	214	16:25:34	0.3123529	Choose a square with about 20 dots	34	Vague	Numeric	LtoR	Small	0.5	-0.5	-0.5	-0.5	valid_trial	expected	FALSE	1461
471	s02	215	26:35:44	0.2308442	Choose a square with few dots	29	Vague	Verbal	LtoR	Small	0.5	0.5	-0.5	-0.5	valid_trial	extreme	FALSE	2857
472	s02	216	36:45:54	0.1833333	Choose a square with about 50 dots	34	Vague	Numeric	RtoL	Large	0.5	-0.5	0.5	0.5	valid_trial	expected	FALSE	1092
473	s02	217	06:15:24	0.4875	Choose a square with about 20 dots	34	Vague	Numeric	RtoL	Large	0.5	-0.5	0.5	0.5	valid_trial	borderline	TRUE	679
474	s02	218	16:25:34	0.3123529	Choose the square with 16 dots	30	Crisp	Numeric	LtoR	Small	-0.5	-0.5	-0.5	-0.5	valid_trial	expected	FALSE	1407
475	s02	219	26:35:44	0.2308442	Choose a square with about 30 dots	34	Vague	Numeric	LtoR	Small	0.5	-0.5	-0.5	-0.5	valid_trial	expected	FALSE	1203
476	s02	220	36:45:54	0.1833333	Choose a square with few dots	29	Vague	Verbal	LtoR	Small	0.5	0.5	-0.5	-0.5	valid_trial	expected	FALSE	1542
477	s02	221	06:15:24	0.4875	Choose the square with 24 dots	30	Crisp	Numeric	RtoL	Large	-0.5	-0.5	0.5	0.5	valid_trial	expected	FALSE	1429
478	s02	222	16:25:34	0.3123529	Choose the square with 16 dots	30	Crisp	Numeric	RtoL	Small	-0.5	-0.5	0.5	-0.5	valid_trial	borderline	TRUE	1201
479	s02	223	26:35:44	0.2308442	Choose a square with few dots	29	Vague	Verbal	RtoL	Small	0.5	0.5	0.5	-0.5	valid_trial	expected	FALSE	1167
480	s02	224	36:45:54	0.1833333	Choose a square with about 40 dots	34	Vague	Numeric	LtoR	Small	0.5	-0.5	-0.5	-0.5	valid_trial	expected	FALSE	1668
481	s02	225	06:15:24	0.4875	Choose the square with the fewest dots	38	Crisp	Verbal	RtoL	Small	-0.5	0.5	0.5	-0.5	valid_trial	expected	FALSE	1335
482	s02	226	16:25:34	0.3123529	Choose a square with about 20 dots	34	Vague	Numeric	RtoL	Small	0.5	-0.5	0.5	-0.5	valid_trial	expected	FALSE	860
483	s02	227	26:35:44	0.2308442	Choose the square with the most dots	36	Crisp	Verbal	LtoR	Large	-0.5	0.5	-0.5	0.5	valid_trial	expected	FALSE	2404
484	s02	228	36:45:54	0.1833333	Choose a square with many dots	30	Vague	Verbal	LtoR	Large	0.5	0.5	-0.5	0.5	valid_trial	expected	FALSE	701
485	s02	229	06:15:24	0.4875	Choose a square with many dots	30	Vague	Verbal	LtoR	Large	0.5	0.5	-0.5	0.5	valid_trial	expected	FALSE	1978
486	s02	230	16:25:34	0.3123529	Choose the square with 34 dots	30	Crisp	Numeric	LtoR	Large	-0.5	-0.5	-0.5	0.5	valid_trial	expected	FALSE	1896
487	s02	231	26:35:44	0.2308442	Choose the square with the fewest dots	38	Crisp	Verbal	LtoR	Small	-0.5	0.5	-0.5	-0.5	valid_trial	expected	FALSE	1432
488	s02	232	36:45:54	0.1833333	Choose the square with the fewest dots	38	Crisp	Verbal	RtoL	Small	-0.5	0.5	0.5	-0.5	valid_trial	expected	FALSE	1396
489	s02	233	06:15:24	0.4875	Choose a square with about 10 dots	34	Vague	Numeric	LtoR	Small	0.5	-0.5	-0.5	-0.5	valid_trial	expected	FALSE	1120
490	s02	234	16:25:34	0.3123529	Choose the square with the fewest dots	38	Crisp	Verbal	RtoL	Small	-0.5	0.5	0.5	-0.5	valid_trial	expected	FALSE	2376
491	s02	235	26:35:44	0.2308442	Choose the square with 26 dots	30	Crisp	Numeric	RtoL	Small	-0.5	-0.5	0.5	-0.5	valid_trial	borderline	TRUE	918
492	s02	236	36:45:54	0.1833333	Choose the square with the most dots	36	Crisp	Verbal	LtoR	Large	-0.5	0.5	-0.5	0.5	valid_trial	expected	FALSE	1789
493	s02	237	06:15:24	0.4875	Choose the square with the most dots	36	Crisp	Verbal	LtoR	Large	-0.5	0.5	-0.5	0.5	valid_trial	expected	FALSE	1771
494	s02	238	16:25:34	0.3123529	Choose the square with the most dots	36	Crisp	Verbal	LtoR	Large	-0.5	0.5	-0.5	0.5	valid_trial	expected	FALSE	1320
495	s02	239	26:35:44	0.2308442	Choose the square with 44 dots	30	Crisp	Numeric	LtoR	Large	-0.5	-0.5	-0.5	0.5	valid_trial	extreme	FALSE	1478
496	s02	240	36:45:54	0.1833333	Choose a square with about 50 dots	34	Vague	Numeric	LtoR	Large	0.5	-0.5	-0.5	0.5	valid_trial	expected	FALSE	2399
497	s02	241	06:15:24	0.4875	Choose a square with many dots	30	Vague	Verbal	RtoL	Large	0.5	0.5	0.5	0.5	valid_trial	expected	FALSE	742
498	s02	242	16:25:34	0.3123529	Choose the square with the fewest dots	38	Crisp	Verbal	LtoR	Small	-0.5	0.5	-0.5	-0.5	valid_trial	expected	FALSE	1064
499	s02	243	26:35:44	0.2308442	Choose the square with 44 dots	30	Crisp	Numeric	RtoL	Large	-0.5	-0.5	0.5	0.5	valid_trial	expected	FALSE	1247
500	s02	244	36:45:54	0.1833333	Choose the square with the fewest dots	38	Crisp	Verbal	LtoR	Small	-0.5	0.5	-0.5	-0.5	valid_trial	expected	FALSE	1646
501	s02	245	06:15:24	0.4875	Choose the square with the fewest dots	38	Crisp	Verbal	LtoR	Small	-0.5	0.5	-0.5	-0.5	valid_trial	expected	FALSE	1231
502	s02	246	16:25:34	0.3123529	Choose the square with the most dots	36	Crisp	Verbal	RtoL	Large	-0.5	0.5	0.5	0.5	valid_trial	expected	FALSE	1750
503	s02	247	26:35:44	0.2308442	Choose a square with about 40 dots	34	Vague	Numeric	LtoR	Large	0.5	-0.5	-0.5	0.5	valid_trial	expected	FALSE	1733
504	s02	248	36:45:54	0.1833333	Choose the square with 36 dots	30	Crisp	Numeric	RtoL	Small	-0.5	-0.5	0.5	-0.5	valid_trial	expected	FALSE	1548
505	s02	249	06:15:24	0.4875	Choose a square with about 20 dots	34	Vague	Numeric	LtoR	Large	0.5	-0.5	-0.5	0.5	valid_trial	borderline	TRUE	1512
506	s02	250	16:25:34	0.3123529	Choose a square with many dots	30	Vague	Verbal	LtoR	Large	0.5	0.5	-0.5	0.5	valid_trial	expected	FALSE	702
507	s02	251	26:35:44	0.2308442	Choose a square with many dots	30	Vague	Verbal	LtoR	Large	0.5	0.5	-0.5	0.5	valid_trial	expected	FALSE	1197
508	s02	252	36:45:54	0.1833333	Choose a square with many dots	30	Vague	Verbal	RtoL	Large	0.5	0.5	0.5	0.5	valid_trial	expected	FALSE	677
509	s02	253	06:15:24	0.4875	Choose the square with the most dots	36	Crisp	Verbal	RtoL	Large	-0.5	0.5	0.5	0.5	valid_trial	expected	FALSE	580
510	s02	254	16:25:34	0.3123529	Choose a square with about 30 dots	34	Vague	Numeric	RtoL	Large	0.5	-0.5	0.5	0.5	valid_trial	expected	FALSE	1806
511	s02	255	26:35:44	0.2308442	Choose the square with 26 dots	30	Crisp	Numeric	LtoR	Small	-0.5	-0.5	-0.5	-0.5	valid_trial	borderline	TRUE	796
512	s02	256	36:45:54	0.1833333	Choose the square with the most dots	36	Crisp	Verbal	RtoL	Large	-0.5	0.5	0.5	0.5	valid_trial	expected	FALSE	1464
513	s03	1	06:15:24	0.4875	Choose the square with the fewest dots	38	Crisp	Verbal	RtoL	Small	-0.5	0.5	0.5	-0.5	valid_trial	expected	FALSE	669
514	s03	2	16:25:34	0.3123529	Choose a square with about 30 dots	34	Vague	Numeric	RtoL	Large	0.5	-0.5	0.5	0.5	valid_trial	expected	FALSE	898
515	s03	3	26:35:44	0.2308442	Choose a square with about 40 dots	34	Vague	Numeric	LtoR	Large	0.5	-0.5	-0.5	0.5	valid_trial	borderline	TRUE	1424
516	s03	4	36:45:54	0.1833333	Choose the square with 54 dots	30	Crisp	Numeric	RtoL	Large	-0.5	-0.5	0.5	0.5	valid_trial	expected	FALSE	1178
517	s03	5	06:15:24	0.4875	Choose the square with the most dots	36	Crisp	Verbal	RtoL	Large	-0.5	0.5	0.5	0.5	valid_trial	expected	FALSE	820
518	s03	6	16:25:34	0.3123529	Choose a square with about 30 dots	34	Vague	Numeric	LtoR	Large	0.5	-0.5	-0.5	0.5	valid_trial	expected	FALSE	1132
519	s03	7	26:35:44	0.2308442	Choose the square with the fewest dots	38	Crisp	Verbal	RtoL	Small	-0.5	0.5	0.5	-0.5	valid_trial	expected	FALSE	1038
520	s03	8	36:45:54	0.1833333	Choose the square with the fewest dots	38	Crisp	Verbal	LtoR	Small	-0.5	0.5	-0.5	-0.5	valid_trial	expected	FALSE	925
521	s03	9	06:15:24	0.4875	Choose a square with about 10 dots	34	Vague	Numeric	RtoL	Small	0.5	-0.5	0.5	-0.5	valid_trial	borderline	TRUE	1040
522	s03	10	16:25:34	0.3123529	Choose a square with many dots	30	Vague	Verbal	LtoR	Large	0.5	0.5	-0.5	0.5	valid_trial	expected	FALSE	1123
523	s03	11	26:35:44	0.2308442	Choose a square with many dots	30	Vague	Verbal	LtoR	Large	0.5	0.5	-0.5	0.5	valid_trial	expected	FALSE	975
524	s03	12	36:45:54	0.1833333	Choose the square with the most dots	36	Crisp	Verbal	LtoR	Large	-0.5	0.5	-0.5	0.5	valid_trial	expected	FALSE	850
525	s03	13	06:15:24	0.4875	Choose a square with many dots	30	Vague	Verbal	LtoR	Large	0.5	0.5	-0.5	0.5	valid_trial	expected	FALSE	983
526	s03	14	16:25:34	0.3123529	Choose the square with 34 dots	30	Crisp	Numeric	RtoL	Large	-0.5	-0.5	0.5	0.5	valid_trial	expected	FALSE	1184
527	s03	15	26:35:44	0.2308442	Choose a square with few dots	29	Vague	Verbal	RtoL	Small	0.5	0.5	0.5	-0.5	valid_trial	expected	FALSE	1148
528	s03	16	36:45:54	0.1833333	Choose the square with the fewest dots	38	Crisp	Verbal	RtoL	Small	-0.5	0.5	0.5	-0.5	valid_trial	expected	FALSE	1511
529	s03	17	06:15:24	0.4875	Choose a square with about 20 dots	34	Vague	Numeric	LtoR	Large	0.5	-0.5	-0.5	0.5	valid_trial	expected	FALSE	1242
530	s03	18	16:25:34	0.3123529	Choose a square with few dots	29	Vague	Verbal	LtoR	Small	0.5	0.5	-0.5	-0.5	valid_trial	expected	FALSE	886
531	s03	19	26:35:44	0.2308442	Choose the square with 44 dots	30	Crisp	Numeric	LtoR	Large	-0.5	-0.5	-0.5	0.5	valid_trial	borderline	TRUE	1534
532	s03	20	36:45:54	0.1833333	Choose the square with 54 dots	30	Crisp	Numeric	LtoR	Large	-0.5	-0.5	-0.5	0.5	valid_trial	expected	FALSE	1226
533	s03	21	06:15:24	0.4875	Choose a square with about 20 dots	34	Vague	Numeric	RtoL	Large	0.5	-0.5	0.5	0.5	valid_trial	expected	FALSE	1018
534	s03	22	16:25:34	0.3123529	Choose the square with the fewest dots	38	Crisp	Verbal	LtoR	Small	-0.5	0.5	-0.5	-0.5	valid_trial	expected	FALSE	1358
535	s03	23	26:35:44	0.2308442	Choose a square with many dots	30	Vague	Verbal	RtoL	Large	0.5	0.5	0.5	0.5	valid_trial	expected	FALSE	1248
536	s03	24	36:45:54	0.1833333	Choose a square with about 50 dots	34	Vague	Numeric	RtoL	Large	0.5	-0.5	0.5	0.5	valid_trial	borderline	TRUE	1689
537	s03	25	06:15:24	0.4875	Choose the square with 24 dots	30	Crisp	Numeric	RtoL	Large	-0.5	-0.5	0.5	0.5	valid_trial	expected	FALSE	1006
538	s03	26	16:25:34	0.3123529	Choose the square with 16 dots	30	Crisp	Numeric	LtoR	Small	-0.5	-0.5	-0.5	-0.5	valid_trial	borderline	TRUE	1544
539	s03	27	26:35:44	0.2308442	Choose a square with about 30 dots	34	Vague	Numeric	RtoL	Small	0.5	-0.5	0.5	-0.5	valid_trial	borderline	TRUE	1904
540	s03	28	36:45:54	0.1833333	Choose the square with the most dots	36	Crisp	Verbal	RtoL	Large	-0.5	0.5	0.5	0.5	valid_trial	expected	FALSE	1139
541	s03	29	06:15:24	0.4875	Choose the square with the fewest dots	38	Crisp	Verbal	LtoR	Small	-0.5	0.5	-0.5	-0.5	valid_trial	expected	FALSE	941
542	s03	30	16:25:34	0.3123529	Choose a square with about 20 dots	34	Vague	Numeric	LtoR	Small	0.5	-0.5	-0.5	-0.5	valid_trial	borderline	TRUE	1300
543	s03	31	26:35:44	0.2308442	Choose the square with 26 dots	30	Crisp	Numeric	RtoL	Small	-0.5	-0.5	0.5	-0.5	valid_trial	borderline	TRUE	2629
544	s03	32	36:45:54	0.1833333	Choose a square with about 50 dots	34	Vague	Numeric	LtoR	Large	0.5	-0.5	-0.5	0.5	valid_trial	expected	FALSE	1233
545	s03	33	06:15:24	0.4875	Choose a square with few dots	29	Vague	Verbal	RtoL	Small	0.5	0.5	0.5	-0.5	valid_trial	expected	FALSE	1091
546	s03	34	16:25:34	0.3123529	Choose the square with the most dots	36	Crisp	Verbal	RtoL	Large	-0.5	0.5	0.5	0.5	valid_trial	expected	FALSE	1503
547	s03	35	26:35:44	0.2308442	Choose a square with few dots	29	Vague	Verbal	LtoR	Small	0.5	0.5	-0.5	-0.5	valid_trial	expected	FALSE	1335
548	s03	36	36:45:54	0.1833333	Choose a square with about 40 dots	34	Vague	Numeric	LtoR	Small	0.5	-0.5	-0.5	-0.5	valid_trial	expected	FALSE	1969
549	s03	37	06:15:24	0.4875	Choose a square with few dots	29	Vague	Verbal	LtoR	Small	0.5	0.5	-0.5	-0.5	valid_trial	expected	FALSE	925
550	s03	38	16:25:34	0.3123529	Choose the square with the most dots	36	Crisp	Verbal	LtoR	Large	-0.5	0.5	-0.5	0.5	valid_trial	expected	FALSE	911
551	s03	39	26:35:44	0.2308442	Choose the square with the most dots	36	Crisp	Verbal	LtoR	Large	-0.5	0.5	-0.5	0.5	valid_trial	expected	FALSE	748
552	s03	40	36:45:54	0.1833333	Choose a square with about 40 dots	34	Vague	Numeric	RtoL	Small	0.5	-0.5	0.5	-0.5	valid_trial	expected	FALSE	2049
553	s03	41	06:15:24	0.4875	Choose a square with about 10 dots	34	Vague	Numeric	LtoR	Small	0.5	-0.5	-0.5	-0.5	valid_trial	borderline	TRUE	1557
554	s03	42	16:25:34	0.3123529	Choose a square with about 20 dots	34	Vague	Numeric	RtoL	Small	0.5	-0.5	0.5	-0.5	valid_trial	expected	FALSE	1710
555	s03	43	26:35:44	0.2308442	Choose the square with 26 dots	30	Crisp	Numeric	LtoR	Small	-0.5	-0.5	-0.5	-0.5	valid_trial	expected	FALSE	1274
556	s03	44	36:45:54	0.1833333	Choose a square with few dots	29	Vague	Verbal	LtoR	Small	0.5	0.5	-0.5	-0.5	valid_trial	expected	FALSE	1690
557	s03	45	06:15:24	0.4875	Choose the square with the most dots	36	Crisp	Verbal	LtoR	Large	-0.5	0.5	-0.5	0.5	valid_trial	expected	FALSE	1043
558	s03	46	16:25:34	0.3123529	Choose the square with the fewest dots	38	Crisp	Verbal	RtoL	Small	-0.5	0.5	0.5	-0.5	valid_trial	expected	FALSE	1638
559	s03	47	26:35:44	0.2308442	Choose the square with the fewest dots	38	Crisp	Verbal	LtoR	Small	-0.5	0.5	-0.5	-0.5	valid_trial	expected	FALSE	958
560	s03	48	36:45:54	0.1833333	Choose the square with 36 dots	30	Crisp	Numeric	RtoL	Small	-0.5	-0.5	0.5	-0.5	valid_trial	expected	FALSE	1099
561	s03	49	06:15:24	0.4875	Choose the square with 24 dots	30	Crisp	Numeric	LtoR	Large	-0.5	-0.5	-0.5	0.5	valid_trial	expected	FALSE	1729
562	s03	50	16:25:34	0.3123529	Choose a square with few dots	29	Vague	Verbal	RtoL	Small	0.5	0.5	0.5	-0.5	valid_trial	expected	FALSE	1386
563	s03	51	26:35:44	0.2308442	Choose the square with 44 dots	30	Crisp	Numeric	RtoL	Large	-0.5	-0.5	0.5	0.5	valid_trial	borderline	TRUE	1374
564	s03	52	36:45:54	0.1833333	Choose the square with 36 dots	30	Crisp	Numeric	LtoR	Small	-0.5	-0.5	-0.5	-0.5	valid_trial	expected	FALSE	1225
565	s03	53	06:15:24	0.4875	Choose a square with many dots	30	Vague	Verbal	RtoL	Large	0.5	0.5	0.5	0.5	valid_trial	expected	FALSE	1297
566	s03	54	16:25:34	0.3123529	Choose the square with 16 dots	30	Crisp	Numeric	RtoL	Small	-0.5	-0.5	0.5	-0.5	valid_trial	borderline	TRUE	1496
567	s03	55	26:35:44	0.2308442	Choose a square with about 40 dots	34	Vague	Numeric	RtoL	Large	0.5	-0.5	0.5	0.5	valid_trial	borderline	TRUE	2244
568	s03	56	36:45:54	0.1833333	Choose a square with many dots	30	Vague	Verbal	LtoR	Large	0.5	0.5	-0.5	0.5	valid_trial	expected	FALSE	987
569	s03	57	06:15:24	0.4875	Choose the square with 6 dots	29	Crisp	Numeric	RtoL	Small	-0.5	-0.5	0.5	-0.5	valid_trial	expected	FALSE	1300
570	s03	58	16:25:34	0.3123529	Choose the square with 34 dots	30	Crisp	Numeric	LtoR	Large	-0.5	-0.5	-0.5	0.5	valid_trial	expected	FALSE	1966
571	s03	59	26:35:44	0.2308442	Choose the square with the most dots	36	Crisp	Verbal	RtoL	Large	-0.5	0.5	0.5	0.5	valid_trial	expected	FALSE	1553
572	s03	60	36:45:54	0.1833333	Choose a square with few dots	29	Vague	Verbal	RtoL	Small	0.5	0.5	0.5	-0.5	valid_trial	expected	FALSE	1801
573	s03	61	06:15:24	0.4875	Choose the square with 6 dots	29	Crisp	Numeric	LtoR	Small	-0.5	-0.5	-0.5	-0.5	valid_trial	expected	FALSE	982
574	s03	62	16:25:34	0.3123529	Choose a square with many dots	30	Vague	Verbal	RtoL	Large	0.5	0.5	0.5	0.5	valid_trial	expected	FALSE	2869
575	s03	63	26:35:44	0.2308442	Choose a square with about 30 dots	34	Vague	Numeric	LtoR	Small	0.5	-0.5	-0.5	-0.5	valid_trial	borderline	TRUE	1271
576	s03	64	36:45:54	0.1833333	Choose a square with many dots	30	Vague	Verbal	RtoL	Large	0.5	0.5	0.5	0.5	valid_trial	expected	FALSE	898
577	s03	65	06:15:24	0.4875	Choose the square with 6 dots	29	Crisp	Numeric	LtoR	Small	-0.5	-0.5	-0.5	-0.5	valid_trial	expected	FALSE	1284
578	s03	66	16:25:34	0.3123529	Choose the square with the fewest dots	38	Crisp	Verbal	LtoR	Small	-0.5	0.5	-0.5	-0.5	valid_trial	expected	FALSE	804
579	s03	67	26:35:44	0.2308442	Choose a square with about 30 dots	34	Vague	Numeric	RtoL	Small	0.5	-0.5	0.5	-0.5	valid_trial	expected	FALSE	2383
580	s03	68	36:45:54	0.1833333	Choose a square with many dots	30	Vague	Verbal	LtoR	Large	0.5	0.5	-0.5	0.5	valid_trial	expected	FALSE	637
581	s03	69	06:15:24	0.4875	Choose a square with few dots	29	Vague	Verbal	LtoR	Small	0.5	0.5	-0.5	-0.5	valid_trial	expected	FALSE	678
582	s03	70	16:25:34	0.3123529	Choose a square with many dots	30	Vague	Verbal	RtoL	Large	0.5	0.5	0.5	0.5	valid_trial	expected	FALSE	674
583	s03	71	26:35:44	0.2308442	Choose the square with 44 dots	30	Crisp	Numeric	LtoR	Large	-0.5	-0.5	-0.5	0.5	valid_trial	expected	FALSE	1480
584	s03	72	36:45:54	0.1833333	Choose a square with about 40 dots	34	Vague	Numeric	RtoL	Small	0.5	-0.5	0.5	-0.5	valid_trial	borderline	TRUE	1887
585	s03	73	06:15:24	0.4875	Choose the square with the fewest dots	38	Crisp	Verbal	RtoL	Small	-0.5	0.5	0.5	-0.5	valid_trial	expected	FALSE	741
586	s03	74	16:25:34	0.3123529	Choose the square with the fewest dots	38	Crisp	Verbal	RtoL	Small	-0.5	0.5	0.5	-0.5	valid_trial	expected	FALSE	1144
587	s03	75	26:35:44	0.2308442	Choose the square with the fewest dots	38	Crisp	Verbal	LtoR	Small	-0.5	0.5	-0.5	-0.5	valid_trial	expected	FALSE	808
588	s03	76	36:45:54	0.1833333	Choose the square with 54 dots	30	Crisp	Numeric	RtoL	Large	-0.5	-0.5	0.5	0.5	valid_trial	expected	FALSE	997
589	s03	77	06:15:24	0.4875	Choose the square with the fewest dots	38	Crisp	Verbal	LtoR	Small	-0.5	0.5	-0.5	-0.5	valid_trial	expected	FALSE	671
590	s03	78	16:25:34	0.3123529	Choose a square with few dots	29	Vague	Verbal	LtoR	Small	0.5	0.5	-0.5	-0.5	valid_trial	expected	FALSE	790
591	s03	79	26:35:44	0.2308442	Choose the square with the most dots	36	Crisp	Verbal	LtoR	Large	-0.5	0.5	-0.5	0.5	valid_trial	expected	FALSE	1040
592	s03	80	36:45:54	0.1833333	Choose a square with few dots	29	Vague	Verbal	LtoR	Small	0.5	0.5	-0.5	-0.5	valid_trial	extreme	FALSE	1845
593	s03	81	06:15:24	0.4875	Choose a square with about 10 dots	34	Vague	Numeric	LtoR	Small	0.5	-0.5	-0.5	-0.5	valid_trial	borderline	TRUE	1173
594	s03	82	16:25:34	0.3123529	Choose a square with about 30 dots	34	Vague	Numeric	LtoR	Large	0.5	-0.5	-0.5	0.5	valid_trial	expected	FALSE	1922
595	s03	83	26:35:44	0.2308442	Choose a square with about 40 dots	34	Vague	Numeric	RtoL	Large	0.5	-0.5	0.5	0.5	valid_trial	expected	FALSE	656
596	s03	84	36:45:54	0.1833333	Choose a square with many dots	30	Vague	Verbal	RtoL	Large	0.5	0.5	0.5	0.5	valid_trial	expected	FALSE	775
597	s03	85	06:15:24	0.4875	Choose a square with about 10 dots	34	Vague	Numeric	RtoL	Small	0.5	-0.5	0.5	-0.5	valid_trial	expected	FALSE	1727
598	s03	86	16:25:34	0.3123529	Choose a square with about 20 dots	34	Vague	Numeric	RtoL	Small	0.5	-0.5	0.5	-0.5	valid_trial	expected	FALSE	1220
599	s03	87	26:35:44	0.2308442	Choose the square with 26 dots	30	Crisp	Numeric	RtoL	Small	-0.5	-0.5	0.5	-0.5	valid_trial	expected	FALSE	2297
600	s03	88	36:45:54	0.1833333	Choose a square with few dots	29	Vague	Verbal	RtoL	Small	0.5	0.5	0.5	-0.5	valid_trial	expected	FALSE	1848
601	s03	89	06:15:24	0.4875	Choose the square with 24 dots	30	Crisp	Numeric	RtoL	Large	-0.5	-0.5	0.5	0.5	valid_trial	expected	FALSE	1267
602	s03	90	16:25:34	0.3123529	Choose the square with 34 dots	30	Crisp	Numeric	LtoR	Large	-0.5	-0.5	-0.5	0.5	valid_trial	expected	FALSE	2192
603	s03	91	26:35:44	0.2308442	Choose the square with 44 dots	30	Crisp	Numeric	RtoL	Large	-0.5	-0.5	0.5	0.5	valid_trial	expected	FALSE	746
604	s03	92	36:45:54	0.1833333	Choose the square with the most dots	36	Crisp	Verbal	RtoL	Large	-0.5	0.5	0.5	0.5	valid_trial	expected	FALSE	903
605	s03	93	06:15:24	0.4875	Choose the square with the most dots	36	Crisp	Verbal	LtoR	Large	-0.5	0.5	-0.5	0.5	valid_trial	expected	FALSE	1637
606	s03	94	16:25:34	0.3123529	Choose a square with few dots	29	Vague	Verbal	RtoL	Small	0.5	0.5	0.5	-0.5	valid_trial	expected	FALSE	973
607	s03	95	26:35:44	0.2308442	Choose a square with about 30 dots	34	Vague	Numeric	LtoR	Small	0.5	-0.5	-0.5	-0.5	valid_trial	extreme	FALSE	1768
608	s03	96	36:45:54	0.1833333	Choose a square with about 50 dots	34	Vague	Numeric	RtoL	Large	0.5	-0.5	0.5	0.5	valid_trial	expected	FALSE	1332
609	s03	97	06:15:24	0.4875	Choose the square with the most dots	36	Crisp	Verbal	RtoL	Large	-0.5	0.5	0.5	0.5	valid_trial	expected	FALSE	957
610	s03	98	16:25:34	0.3123529	Choose a square with about 20 dots	34	Vague	Numeric	LtoR	Small	0.5	-0.5	-0.5	-0.5	valid_trial	borderline	TRUE	1264
611	s03	99	26:35:44	0.2308442	Choose a square with many dots	30	Vague	Verbal	RtoL	Large	0.5	0.5	0.5	0.5	valid_trial	expected	FALSE	1098
612	s03	100	36:45:54	0.1833333	Choose a square with about 50 dots	34	Vague	Numeric	LtoR	Large	0.5	-0.5	-0.5	0.5	valid_trial	expected	FALSE	782
613	s03	101	06:15:24	0.4875	Choose the square with 24 dots	30	Crisp	Numeric	LtoR	Large	-0.5	-0.5	-0.5	0.5	valid_trial	expected	FALSE	1416
614	s03	102	16:25:34	0.3123529	Choose a square with many dots	30	Vague	Verbal	LtoR	Large	0.5	0.5	-0.5	0.5	valid_trial	expected	FALSE	1921
615	s03	103	26:35:44	0.2308442	Choose a square with about 40 dots	34	Vague	Numeric	LtoR	Large	0.5	-0.5	-0.5	0.5	valid_trial	borderline	TRUE	1268
616	s03	104	36:45:54	0.1833333	Choose the square with 36 dots	30	Crisp	Numeric	LtoR	Small	-0.5	-0.5	-0.5	-0.5	valid_trial	expected	FALSE	1661
617	s03	105	06:15:24	0.4875	Choose a square with few dots	29	Vague	Verbal	RtoL	Small	0.5	0.5	0.5	-0.5	valid_trial	expected	FALSE	751
618	s03	106	16:25:34	0.3123529	Choose the square with the most dots	36	Crisp	Verbal	RtoL	Large	-0.5	0.5	0.5	0.5	valid_trial	expected	FALSE	745
619	s03	107	26:35:44	0.2308442	Choose a square with few dots	29	Vague	Verbal	LtoR	Small	0.5	0.5	-0.5	-0.5	valid_trial	expected	FALSE	1353
620	s03	108	36:45:54	0.1833333	Choose the square with 36 dots	30	Crisp	Numeric	RtoL	Small	-0.5	-0.5	0.5	-0.5	valid_trial	borderline	TRUE	1328
621	s03	109	06:15:24	0.4875	Choose a square with about 20 dots	34	Vague	Numeric	RtoL	Large	0.5	-0.5	0.5	0.5	valid_trial	expected	FALSE	1051
622	s03	110	16:25:34	0.3123529	Choose the square with the most dots	36	Crisp	Verbal	LtoR	Large	-0.5	0.5	-0.5	0.5	valid_trial	expected	FALSE	864
623	s03	111	26:35:44	0.2308442	Choose the square with the most dots	36	Crisp	Verbal	RtoL	Large	-0.5	0.5	0.5	0.5	valid_trial	expected	FALSE	700
624	s03	112	36:45:54	0.1833333	Choose the square with the fewest dots	38	Crisp	Verbal	RtoL	Small	-0.5	0.5	0.5	-0.5	valid_trial	expected	FALSE	1398
625	s03	113	06:15:24	0.4875	Choose a square with about 20 dots	34	Vague	Numeric	LtoR	Large	0.5	-0.5	-0.5	0.5	valid_trial	borderline	TRUE	1683
626	s03	114	16:25:34	0.3123529	Choose the square with 16 dots	30	Crisp	Numeric	RtoL	Small	-0.5	-0.5	0.5	-0.5	valid_trial	expected	FALSE	1195
627	s03	115	26:35:44	0.2308442	Choose a square with few dots	29	Vague	Verbal	RtoL	Small	0.5	0.5	0.5	-0.5	valid_trial	expected	FALSE	1279
628	s03	116	36:45:54	0.1833333	Choose the square with 54 dots	30	Crisp	Numeric	LtoR	Large	-0.5	-0.5	-0.5	0.5	valid_trial	expected	FALSE	1058
629	s03	117	06:15:24	0.4875	Choose a square with many dots	30	Vague	Verbal	RtoL	Large	0.5	0.5	0.5	0.5	valid_trial	expected	FALSE	1679
630	s03	118	16:25:34	0.3123529	Choose the square with 16 dots	30	Crisp	Numeric	LtoR	Small	-0.5	-0.5	-0.5	-0.5	valid_trial	expected	FALSE	1559
631	s03	119	26:35:44	0.2308442	Choose the square with the fewest dots	38	Crisp	Verbal	RtoL	Small	-0.5	0.5	0.5	-0.5	valid_trial	expected	FALSE	782
632	s03	120	36:45:54	0.1833333	Choose the square with the fewest dots	38	Crisp	Verbal	LtoR	Small	-0.5	0.5	-0.5	-0.5	valid_trial	expected	FALSE	744
633	s03	121	06:15:24	0.4875	Choose the square with 6 dots	29	Crisp	Numeric	RtoL	Small	-0.5	-0.5	0.5	-0.5	valid_trial	expected	FALSE	574
634	s03	122	16:25:34	0.3123529	Choose a square with about 30 dots	34	Vague	Numeric	RtoL	Large	0.5	-0.5	0.5	0.5	valid_trial	borderline	TRUE	1365
635	s03	123	26:35:44	0.2308442	Choose a square with many dots	30	Vague	Verbal	LtoR	Large	0.5	0.5	-0.5	0.5	valid_trial	expected	FALSE	498
636	s03	124	36:45:54	0.1833333	Choose a square with about 40 dots	34	Vague	Numeric	LtoR	Small	0.5	-0.5	-0.5	-0.5	valid_trial	borderline	TRUE	1317
637	s03	125	06:15:24	0.4875	Choose a square with many dots	30	Vague	Verbal	LtoR	Large	0.5	0.5	-0.5	0.5	valid_trial	expected	FALSE	619
638	s03	126	16:25:34	0.3123529	Choose the square with 34 dots	30	Crisp	Numeric	RtoL	Large	-0.5	-0.5	0.5	0.5	valid_trial	expected	FALSE	1521
639	s03	127	26:35:44	0.2308442	Choose the square with 26 dots	30	Crisp	Numeric	LtoR	Small	-0.5	-0.5	-0.5	-0.5	valid_trial	expected	FALSE	2153
640	s03	128	36:45:54	0.1833333	Choose the square with the most dots	36	Crisp	Verbal	LtoR	Large	-0.5	0.5	-0.5	0.5	valid_trial	expected	FALSE	547
641	s03	129	06:15:24	0.4875	Choose the square with the fewest dots	38	Crisp	Verbal	LtoR	Small	-0.5	0.5	-0.5	-0.5	valid_trial	expected	FALSE	661
642	s03	130	16:25:34	0.3123529	Choose a square with few dots	29	Vague	Verbal	LtoR	Small	0.5	0.5	-0.5	-0.5	valid_trial	expected	FALSE	643
643	s03	131	26:35:44	0.2308442	Choose a square with about 30 dots	34	Vague	Numeric	LtoR	Small	0.5	-0.5	-0.5	-0.5	valid_trial	borderline	TRUE	735
644	s03	132	36:45:54	0.1833333	Choose the square with 54 dots	30	Crisp	Numeric	RtoL	Large	-0.5	-0.5	0.5	0.5	valid_trial	expected	FALSE	578
645	s03	133	06:15:24	0.4875	Choose the square with the fewest dots	38	Crisp	Verbal	RtoL	Small	-0.5	0.5	0.5	-0.5	valid_trial	expected	FALSE	758
646	s03	134	16:25:34	0.3123529	Choose a square with many dots	30	Vague	Verbal	RtoL	Large	0.5	0.5	0.5	0.5	valid_trial	expected	FALSE	934
647	s03	135	26:35:44	0.2308442	Choose a square with many dots	30	Vague	Verbal	RtoL	Large	0.5	0.5	0.5	0.5	valid_trial	expected	FALSE	685
648	s03	136	36:45:54	0.1833333	Choose a square with many dots	30	Vague	Verbal	RtoL	Large	0.5	0.5	0.5	0.5	valid_trial	expected	FALSE	964
649	s03	137	06:15:24	0.4875	Choose a square with many dots	30	Vague	Verbal	RtoL	Large	0.5	0.5	0.5	0.5	valid_trial	expected	FALSE	738
650	s03	138	16:25:34	0.3123529	Choose the square with the most dots	36	Crisp	Verbal	RtoL	Large	-0.5	0.5	0.5	0.5	valid_trial	expected	FALSE	993
651	s03	139	26:35:44	0.2308442	Choose a square with about 40 dots	34	Vague	Numeric	RtoL	Large	0.5	-0.5	0.5	0.5	valid_trial	borderline	TRUE	1737
652	s03	140	36:45:54	0.1833333	Choose a square with about 50 dots	34	Vague	Numeric	LtoR	Large	0.5	-0.5	-0.5	0.5	valid_trial	expected	FALSE	975
653	s03	141	06:15:24	0.4875	Choose the square with 24 dots	30	Crisp	Numeric	LtoR	Large	-0.5	-0.5	-0.5	0.5	valid_trial	expected	FALSE	809
654	s03	142	16:25:34	0.3123529	Choose the square with 16 dots	30	Crisp	Numeric	LtoR	Small	-0.5	-0.5	-0.5	-0.5	valid_trial	borderline	TRUE	1093
655	s03	143	26:35:44	0.2308442	Choose a square with about 30 dots	34	Vague	Numeric	RtoL	Small	0.5	-0.5	0.5	-0.5	valid_trial	borderline	TRUE	1482
656	s03	144	36:45:54	0.1833333	Choose a square with few dots	29	Vague	Verbal	RtoL	Small	0.5	0.5	0.5	-0.5	valid_trial	borderline	TRUE	1371
657	s03	145	06:15:24	0.4875	Choose a square with many dots	30	Vague	Verbal	LtoR	Large	0.5	0.5	-0.5	0.5	valid_trial	expected	FALSE	862
658	s03	146	16:25:34	0.3123529	Choose the square with 34 dots	30	Crisp	Numeric	RtoL	Large	-0.5	-0.5	0.5	0.5	valid_trial	expected	FALSE	986
659	s03	147	26:35:44	0.2308442	Choose the square with 26 dots	30	Crisp	Numeric	RtoL	Small	-0.5	-0.5	0.5	-0.5	valid_trial	borderline	TRUE	1150
660	s03	148	36:45:54	0.1833333	Choose a square with many dots	30	Vague	Verbal	LtoR	Large	0.5	0.5	-0.5	0.5	valid_trial	expected	FALSE	1314
661	s03	149	06:15:24	0.4875	Choose the square with the most dots	36	Crisp	Verbal	LtoR	Large	-0.5	0.5	-0.5	0.5	valid_trial	expected	FALSE	673
662	s03	150	16:25:34	0.3123529	Choose a square with about 20 dots	34	Vague	Numeric	RtoL	Small	0.5	-0.5	0.5	-0.5	valid_trial	borderline	TRUE	2001
663	s03	151	26:35:44	0.2308442	Choose a square with few dots	29	Vague	Verbal	RtoL	Small	0.5	0.5	0.5	-0.5	valid_trial	expected	FALSE	986
664	s03	152	36:45:54	0.1833333	Choose the square with the fewest dots	38	Crisp	Verbal	RtoL	Small	-0.5	0.5	0.5	-0.5	valid_trial	expected	FALSE	1299
665	s03	153	06:15:24	0.4875	Choose a square with about 10 dots	34	Vague	Numeric	LtoR	Small	0.5	-0.5	-0.5	-0.5	valid_trial	borderline	TRUE	1086
666	s03	154	16:25:34	0.3123529	Choose the square with 34 dots	30	Crisp	Numeric	LtoR	Large	-0.5	-0.5	-0.5	0.5	valid_trial	borderline	TRUE	2153
667	s03	155	26:35:44	0.2308442	Choose the square with 44 dots	30	Crisp	Numeric	LtoR	Large	-0.5	-0.5	-0.5	0.5	valid_trial	expected	FALSE	803
668	s03	156	36:45:54	0.1833333	Choose a square with about 50 dots	34	Vague	Numeric	RtoL	Large	0.5	-0.5	0.5	0.5	valid_trial	expected	FALSE	837
669	s03	157	06:15:24	0.4875	Choose the square with 6 dots	29	Crisp	Numeric	RtoL	Small	-0.5	-0.5	0.5	-0.5	valid_trial	expected	FALSE	723
670	s03	158	16:25:34	0.3123529	Choose a square with many dots	30	Vague	Verbal	LtoR	Large	0.5	0.5	-0.5	0.5	valid_trial	expected	FALSE	1799
671	s03	159	26:35:44	0.2308442	Choose the square with 26 dots	30	Crisp	Numeric	LtoR	Small	-0.5	-0.5	-0.5	-0.5	valid_trial	expected	FALSE	1088
672	s03	160	36:45:54	0.1833333	Choose the square with the fewest dots	38	Crisp	Verbal	LtoR	Small	-0.5	0.5	-0.5	-0.5	valid_trial	expected	FALSE	989
673	s03	161	06:15:24	0.4875	Choose a square with about 20 dots	34	Vague	Numeric	RtoL	Large	0.5	-0.5	0.5	0.5	valid_trial	borderline	TRUE	1986
674	s03	162	16:25:34	0.3123529	Choose a square with about 20 dots	34	Vague	Numeric	LtoR	Small	0.5	-0.5	-0.5	-0.5	valid_trial	borderline	TRUE	1179
675	s03	163	26:35:44	0.2308442	Choose the square with the most dots	36	Crisp	Verbal	RtoL	Large	-0.5	0.5	0.5	0.5	valid_trial	expected	FALSE	668
676	s03	164	36:45:54	0.1833333	Choose a square with few dots	29	Vague	Verbal	LtoR	Small	0.5	0.5	-0.5	-0.5	valid_trial	expected	FALSE	802
677	s03	165	06:15:24	0.4875	Choose the square with 6 dots	29	Crisp	Numeric	LtoR	Small	-0.5	-0.5	-0.5	-0.5	valid_trial	expected	FALSE	589
678	s03	166	16:25:34	0.3123529	Choose a square with about 30 dots	34	Vague	Numeric	RtoL	Large	0.5	-0.5	0.5	0.5	valid_trial	expected	FALSE	1048
679	s03	167	26:35:44	0.2308442	Choose a square with many dots	30	Vague	Verbal	LtoR	Large	0.5	0.5	-0.5	0.5	valid_trial	expected	FALSE	547
680	s03	168	36:45:54	0.1833333	Choose the square with 36 dots	30	Crisp	Numeric	RtoL	Small	-0.5	-0.5	0.5	-0.5	valid_trial	expected	FALSE	1164
681	s03	169	06:15:24	0.4875	Choose the square with 24 dots	30	Crisp	Numeric	RtoL	Large	-0.5	-0.5	0.5	0.5	valid_trial	borderline	TRUE	1266
682	s03	170	16:25:34	0.3123529	Choose the square with the fewest dots	38	Crisp	Verbal	LtoR	Small	-0.5	0.5	-0.5	-0.5	valid_trial	expected	FALSE	789
683	s03	171	26:35:44	0.2308442	Choose the square with the fewest dots	38	Crisp	Verbal	LtoR	Small	-0.5	0.5	-0.5	-0.5	valid_trial	expected	FALSE	1588
684	s03	172	36:45:54	0.1833333	Choose the square with the most dots	36	Crisp	Verbal	LtoR	Large	-0.5	0.5	-0.5	0.5	valid_trial	expected	FALSE	900
685	s03	173	06:15:24	0.4875	Choose the square with the most dots	36	Crisp	Verbal	RtoL	Large	-0.5	0.5	0.5	0.5	valid_trial	expected	FALSE	1445
686	s03	174	16:25:34	0.3123529	Choose the square with the most dots	36	Crisp	Verbal	LtoR	Large	-0.5	0.5	-0.5	0.5	valid_trial	expected	FALSE	581
687	s03	175	26:35:44	0.2308442	Choose a square with about 40 dots	34	Vague	Numeric	LtoR	Large	0.5	-0.5	-0.5	0.5	valid_trial	expected	FALSE	1432
688	s03	176	36:45:54	0.1833333	Choose a square with about 40 dots	34	Vague	Numeric	LtoR	Small	0.5	-0.5	-0.5	-0.5	valid_trial	borderline	TRUE	891
689	s03	177	06:15:24	0.4875	Choose a square with few dots	29	Vague	Verbal	LtoR	Small	0.5	0.5	-0.5	-0.5	valid_trial	expected	FALSE	513
690	s03	178	16:25:34	0.3123529	Choose the square with the fewest dots	38	Crisp	Verbal	RtoL	Small	-0.5	0.5	0.5	-0.5	valid_trial	expected	FALSE	533
691	s03	179	26:35:44	0.2308442	Choose the square with the most dots	36	Crisp	Verbal	LtoR	Large	-0.5	0.5	-0.5	0.5	valid_trial	expected	FALSE	1229
692	s03	180	36:45:54	0.1833333	Choose the square with the most dots	36	Crisp	Verbal	RtoL	Large	-0.5	0.5	0.5	0.5	valid_trial	expected	FALSE	1219
693	s03	181	06:15:24	0.4875	Choose a square with few dots	29	Vague	Verbal	RtoL	Small	0.5	0.5	0.5	-0.5	valid_trial	expected	FALSE	554
694	s03	182	16:25:34	0.3123529	Choose the square with 16 dots	30	Crisp	Numeric	RtoL	Small	-0.5	-0.5	0.5	-0.5	valid_trial	expected	FALSE	1886
695	s03	183	26:35:44	0.2308442	Choose a square with few dots	29	Vague	Verbal	LtoR	Small	0.5	0.5	-0.5	-0.5	valid_trial	expected	FALSE	609
696	s03	184	36:45:54	0.1833333	Choose the square with 36 dots	30	Crisp	Numeric	LtoR	Small	-0.5	-0.5	-0.5	-0.5	valid_trial	extreme	FALSE	3163
697	s03	185	06:15:24	0.4875	Choose a square with about 10 dots	34	Vague	Numeric	RtoL	Small	0.5	-0.5	0.5	-0.5	valid_trial	borderline	TRUE	1113
698	s03	186	16:25:34	0.3123529	Choose a square with about 30 dots	34	Vague	Numeric	LtoR	Large	0.5	-0.5	-0.5	0.5	valid_trial	borderline	TRUE	1796
699	s03	187	26:35:44	0.2308442	Choose the square with the fewest dots	38	Crisp	Verbal	RtoL	Small	-0.5	0.5	0.5	-0.5	valid_trial	expected	FALSE	766
700	s03	188	36:45:54	0.1833333	Choose a square with about 40 dots	34	Vague	Numeric	RtoL	Small	0.5	-0.5	0.5	-0.5	valid_trial	borderline	TRUE	1156
701	s03	189	06:15:24	0.4875	Choose a square with about 20 dots	34	Vague	Numeric	LtoR	Large	0.5	-0.5	-0.5	0.5	valid_trial	expected	FALSE	1327
702	s03	190	16:25:34	0.3123529	Choose a square with few dots	29	Vague	Verbal	RtoL	Small	0.5	0.5	0.5	-0.5	valid_trial	expected	FALSE	758
703	s03	191	26:35:44	0.2308442	Choose the square with 44 dots	30	Crisp	Numeric	RtoL	Large	-0.5	-0.5	0.5	0.5	valid_trial	expected	FALSE	1245
704	s03	192	36:45:54	0.1833333	Choose the square with 54 dots	30	Crisp	Numeric	LtoR	Large	-0.5	-0.5	-0.5	0.5	valid_trial	expected	FALSE	682
705	s03	193	06:15:24	0.4875	Choose a square with few dots	29	Vague	Verbal	LtoR	Small	0.5	0.5	-0.5	-0.5	valid_trial	expected	FALSE	543
706	s03	194	16:25:34	0.3123529	Choose the square with the most dots	36	Crisp	Verbal	RtoL	Large	-0.5	0.5	0.5	0.5	valid_trial	expected	FALSE	564
707	s03	195	26:35:44	0.2308442	Choose a square with about 40 dots	34	Vague	Numeric	LtoR	Large	0.5	-0.5	-0.5	0.5	valid_trial	borderline	TRUE	849
708	s03	196	36:45:54	0.1833333	Choose a square with about 40 dots	34	Vague	Numeric	RtoL	Small	0.5	-0.5	0.5	-0.5	valid_trial	borderline	TRUE	1351
709	s03	197	06:15:24	0.4875	Choose a square with about 20 dots	34	Vague	Numeric	LtoR	Large	0.5	-0.5	-0.5	0.5	valid_trial	borderline	TRUE	1516
