"Subject" "Item" "id" "Trial" "Vagueness" "Selection" "Order" "Quantity" "Instruction" "nchar_instr" "RT" "RT_raw" "RT_log" "RTprev_log" "RTprev_raw" "rt_instr" "response_cat"
"1" "s01" "06:15:24" "s01:t001" 1 "Vague" "Comparison" "RtoL" "Small" "'Choose a square with far fewer than 20 dots'" 45 996 996 6.9037472575846 NA NA 2662 "Expected"
"2" "s01" "16:25:34" "s01:t002" 2 "Crisp" "Matching" "LtoR" "Large" "'Choose a square with 34 dots'" 30 1332 1332 7.19443685110033 6.9037472575846 996 967 "Expected"
"3" "s01" "26:35:44" "s01:t003" 3 "Vague" "Comparison" "LtoR" "Small" "'Choose a square with far fewer than 40 dots'" 45 1083 1083 6.98749024700099 7.19443685110033 1332 868 "Expected"
"4" "s01" "36:45:54" "s01:t004" 4 "Vague" "Comparison" "LtoR" "Large" "'Choose a square with far more than 40 dots'" 44 1234 1234 7.11801620446533 6.98749024700099 1083 932 "Expected"
"5" "s01" "06:15:24" "s01:t005" 5 "Crisp" "Matching" "RtoL" "Large" "'Choose a square with 24 dots'" 30 1369 1369 7.22183582528845 7.11801620446533 1234 564 "Expected"
"6" "s01" "16:25:34" "s01:t006" 6 "Crisp" "Comparison" "LtoR" "Large" "'Choose a square with more than 20 dots'" 40 971 971 6.87832646829133 7.22183582528845 1369 734 "Expected"
"7" "s01" "26:35:44" "s01:t007" 7 "Vague" "Comparison" "RtoL" "Large" "'Choose a square with far more than 30 dots'" 44 966 966 6.87316383421252 6.87832646829133 971 1319 "Expected"
"8" "s01" "36:45:54" "s01:t008" 8 "Crisp" "Matching" "RtoL" "Small" "'Choose a square with 36 dots'" 30 1656 1656 7.4121603349452 6.87316383421252 966 726 "Near"
"9" "s01" "06:15:24" "s01:t009" 9 "Vague" "Comparison" "LtoR" "Large" "'Choose a square with far more than 10 dots'" 44 1017 1017 6.92461239604856 7.4121603349452 1656 723 "Expected"
"10" "s01" "16:25:34" "s01:t010" 10 "Vague" "Comparison" "RtoL" "Small" "'Choose a square with far fewer than 30 dots'" 45 1033 1033 6.94022246911964 6.92461239604856 1017 907 "Expected"
"11" "s01" "26:35:44" "s01:t011" 11 "Crisp" "Matching" "LtoR" "Small" "'Choose a square with 26 dots'" 30 2329 2329 7.75319426988434 6.94022246911964 1033 731 "Far"
"12" "s01" "36:45:54" "s01:t012" 12 "Crisp" "Comparison" "LtoR" "Large" "'Choose a square with more than 40 dots'" 40 990 990 6.89770494312864 7.75319426988434 2329 781 "Expected"
"13" "s01" "06:15:24" "s01:t013" 13 "Crisp" "Comparison" "LtoR" "Small" "'Choose a square with fewer than 20 dots'" 41 945 945 6.85118492749374 6.89770494312864 990 907 "Expected"
"14" "s01" "16:25:34" "s01:t014" 14 "Crisp" "Comparison" "RtoL" "Large" "'Choose a square with more than 20 dots'" 40 1022 1022 6.92951677076365 6.85118492749374 945 863 "Expected"
"15" "s01" "26:35:44" "s01:t015" 15 "Vague" "Matching" "RtoL" "Small" "'Choose a square with about 30 dots'" 36 1709 1709 7.44366368311559 6.92951677076365 1022 943 "Far"
"16" "s01" "36:45:54" "s01:t016" 16 "Crisp" "Matching" "LtoR" "Small" "'Choose a square with 36 dots'" 30 1151 1151 7.04838640872188 7.44366368311559 1709 590 "Far"
"17" "s01" "06:15:24" "s01:t017" 17 "Vague" "Matching" "RtoL" "Small" "'Choose a square with about 10 dots'" 36 3558 3558 8.17695386822578 7.04838640872188 1151 622 "Expected"
"18" "s01" "16:25:34" "s01:t018" 18 "Vague" "Comparison" "LtoR" "Small" "'Choose a square with far fewer than 30 dots'" 45 927 927 6.83195356556585 8.17695386822578 3558 557 "Expected"
"19" "s01" "26:35:44" "s01:t019" 19 "Crisp" "Comparison" "RtoL" "Large" "'Choose a square with more than 30 dots'" 40 914 914 6.81783057145415 6.83195356556585 927 725 "Expected"
"20" "s01" "36:45:54" "s01:t020" 20 "Vague" "Comparison" "RtoL" "Large" "'Choose a square with far more than 40 dots'" 44 1090 1090 6.99393297522319 6.81783057145415 914 634 "Expected"
"21" "s01" "06:15:24" "s01:t021" 21 "Crisp" "Matching" "LtoR" "Large" "'Choose a square with 24 dots'" 30 1177 1177 7.07072410726028 6.99393297522319 1090 657 "Expected"
"22" "s01" "16:25:34" "s01:t022" 22 "Crisp" "Comparison" "LtoR" "Small" "'Choose a square with fewer than 30 dots'" 41 865 865 6.76272950693188 7.07072410726028 1177 592 "Expected"
"23" "s01" "26:35:44" "s01:t023" 23 "Vague" "Comparison" "LtoR" "Large" "'Choose a square with far more than 30 dots'" 44 894 894 6.79570577517351 6.76272950693188 865 962 "Expected"
"24" "s01" "36:45:54" "s01:t024" 24 "Crisp" "Comparison" "RtoL" "Small" "'Choose a square with fewer than 50 dots'" 41 1041 1041 6.94793706861497 6.79570577517351 894 1373 "Expected"
"25" "s01" "06:15:24" "s01:t025" 25 "Vague" "Comparison" "RtoL" "Large" "'Choose a square with far more than 10 dots'" 44 856 856 6.75227037614174 6.94793706861497 1041 732 "Expected"
"26" "s01" "16:25:34" "s01:t026" 26 "Vague" "Matching" "RtoL" "Large" "'Choose a square with about 30 dots'" 36 972 972 6.87935580446044 6.75227037614174 856 786 "Expected"
"27" "s01" "26:35:44" "s01:t027" 27 "Crisp" "Comparison" "LtoR" "Large" "'Choose a square with more than 30 dots'" 40 908 908 6.81124437860129 6.87935580446044 972 729 "Expected"
"28" "s01" "36:45:54" "s01:t028" 28 "Crisp" "Matching" "RtoL" "Large" "'Choose a square with 54 dots'" 30 1117 1117 7.0184017990692 6.81124437860129 908 811 "Expected"
"29" "s01" "06:15:24" "s01:t029" 29 "Crisp" "Comparison" "RtoL" "Small" "'Choose a square with fewer than 20 dots'" 41 794 794 6.67708346124714 7.0184017990692 1117 700 "Expected"
"30" "s01" "16:25:34" "s01:t030" 30 "Crisp" "Matching" "RtoL" "Large" "'Choose a square with 34 dots'" 30 882 882 6.78219205600679 6.67708346124714 794 742 "Expected"
"31" "s01" "26:35:44" "s01:t031" 31 "Crisp" "Matching" "RtoL" "Small" "'Choose a square with 26 dots'" 30 1172 1172 7.06646697013696 6.78219205600679 882 634 "Far"
"32" "s01" "36:45:54" "s01:t032" 32 "Vague" "Matching" "LtoR" "Large" "'Choose a square with about 50 dots'" 36 817 817 6.70563909486 7.06646697013696 1172 615 "Expected"
"33" "s01" "06:15:24" "s01:t033" 33 "Vague" "Matching" "RtoL" "Large" "'Choose a square with about 20 dots'" 36 760 760 6.63331843328038 6.70563909486 817 698 "Expected"
"34" "s01" "16:25:34" "s01:t034" 34 "Crisp" "Matching" "RtoL" "Small" "'Choose a square with 16 dots'" 30 1103 1103 7.0057890192535 6.63331843328038 760 692 "Expected"
"35" "s01" "26:35:44" "s01:t035" 35 "Vague" "Matching" "LtoR" "Large" "'Choose a square with about 40 dots'" 36 1041 1041 6.94793706861497 7.0057890192535 1103 674 "Expected"
"36" "s01" "36:45:54" "s01:t036" 36 "Vague" "Comparison" "RtoL" "Small" "'Choose a square with far fewer than 50 dots'" 45 1510 1510 7.31986492980897 6.94793706861497 1041 771 "Expected"
"37" "s01" "06:15:24" "s01:t037" 37 "Vague" "Comparison" "LtoR" "Small" "'Choose a square with far fewer than 20 dots'" 45 612 612 6.41673228251233 7.31986492980897 1510 718 "Expected"
"38" "s01" "16:25:34" "s01:t038" 38 "Crisp" "Matching" "LtoR" "Small" "'Choose a square with 16 dots'" 30 734 734 6.59850902861452 6.41673228251233 612 671 "Expected"
"39" "s01" "26:35:44" "s01:t039" 39 "Crisp" "Comparison" "RtoL" "Small" "'Choose a square with fewer than 40 dots'" 41 1030 1030 6.93731408122368 6.59850902861452 734 954 "Expected"
"40" "s01" "36:45:54" "s01:t040" 40 "Crisp" "Matching" "LtoR" "Large" "'Choose a square with 54 dots'" 30 747 747 6.61606518513282 6.93731408122368 1030 577 "Expected"
"41" "s01" "06:15:24" "s01:t041" 41 "Crisp" "Matching" "RtoL" "Small" "'Choose a square with 6 dots'" 29 1262 1262 7.14045304310116 6.61606518513282 747 681 "Expected"
"42" "s01" "16:25:34" "s01:t042" 42 "Vague" "Comparison" "RtoL" "Large" "'Choose a square with far more than 20 dots'" 44 779 779 6.65801104587075 7.14045304310116 1262 784 "Expected"
"43" "s01" "26:35:44" "s01:t043" 43 "Vague" "Matching" "RtoL" "Large" "'Choose a square with about 40 dots'" 36 712 712 6.56807791141198 6.65801104587075 779 615 "Expected"
"44" "s01" "36:45:54" "s01:t044" 44 "Vague" "Matching" "RtoL" "Large" "'Choose a square with about 50 dots'" 36 930 930 6.8351845861473 6.56807791141198 712 559 "Expected"
"45" "s01" "06:15:24" "s01:t045" 45 "Crisp" "Comparison" "LtoR" "Large" "'Choose a square with more than 10 dots'" 40 1111 1111 7.01301578963963 6.8351845861473 930 862 "Expected"
"46" "s01" "16:25:34" "s01:t046" 46 "Vague" "Comparison" "LtoR" "Large" "'Choose a square with far more than 20 dots'" 44 643 643 6.46614472423762 7.01301578963963 1111 1166 "Expected"
"47" "s01" "26:35:44" "s01:t047" 47 "Crisp" "Comparison" "LtoR" "Small" "'Choose a square with fewer than 40 dots'" 41 665 665 6.49978704065585 6.46614472423762 643 707 "Expected"
"48" "s01" "36:45:54" "s01:t048" 48 "Vague" "Comparison" "LtoR" "Small" "'Choose a square with far fewer than 50 dots'" 45 737 737 6.60258789218934 6.49978704065585 665 832 "Expected"
"49" "s01" "06:15:24" "s01:t049" 49 "Vague" "Matching" "LtoR" "Small" "'Choose a square with about 10 dots'" 36 695 695 6.54391184556479 6.60258789218934 737 623 "Expected"
"50" "s01" "16:25:34" "s01:t050" 50 "Crisp" "Comparison" "RtoL" "Small" "'Choose a square with fewer than 30 dots'" 41 814 814 6.70196036600254 6.54391184556479 695 830 "Expected"
"51" "s01" "26:35:44" "s01:t051" 51 "Vague" "Matching" "LtoR" "Small" "'Choose a square with about 30 dots'" 36 1395 1395 7.24064969425547 6.70196036600254 814 578 "Far"
"52" "s01" "36:45:54" "s01:t052" 52 "Vague" "Matching" "RtoL" "Small" "'Choose a square with about 40 dots'" 36 683 683 6.52649485957079 7.24064969425547 1395 585 "Far"
"53" "s01" "06:15:24" "s01:t053" 53 "Crisp" "Matching" "LtoR" "Small" "'Choose a square with 6 dots'" 29 710 710 6.56526497003536 6.52649485957079 683 538 "Expected"
"54" "s01" "16:25:34" "s01:t054" 54 "Vague" "Matching" "RtoL" "Small" "'Choose a square with about 20 dots'" 36 1994 1994 7.59789795052178 6.56526497003536 710 691 "Near"
"55" "s01" "26:35:44" "s01:t055" 55 "Vague" "Comparison" "RtoL" "Small" "'Choose a square with far fewer than 40 dots'" 45 887 887 6.78784498230958 7.59789795052178 1994 681 "Expected"
"56" "s01" "36:45:54" "s01:t056" 56 "Crisp" "Comparison" "LtoR" "Small" "'Choose a square with fewer than 50 dots'" 41 1080 1080 6.98471632011827 6.78784498230958 887 624 "Expected"
"57" "s01" "06:15:24" "s01:t057" 57 "Vague" "Matching" "LtoR" "Large" "'Choose a square with about 20 dots'" 36 1309 1309 7.1770187659099 6.98471632011827 1080 560 "Expected"
"58" "s01" "16:25:34" "s01:t058" 58 "Vague" "Matching" "LtoR" "Small" "'Choose a square with about 20 dots'" 36 1454 1454 7.28207365809346 7.1770187659099 1309 587 "Near"
"59" "s01" "26:35:44" "s01:t059" 59 "Crisp" "Matching" "LtoR" "Large" "'Choose a square with 44 dots'" 30 1252 1252 7.13249755166004 7.28207365809346 1454 553 "Expected"
"60" "s01" "36:45:54" "s01:t060" 60 "Vague" "Matching" "LtoR" "Small" "'Choose a square with about 40 dots'" 36 837 837 6.72982407048948 7.13249755166004 1252 687 "Far"
"61" "s01" "06:15:24" "s01:t061" 61 "Crisp" "Comparison" "RtoL" "Large" "'Choose a square with more than 10 dots'" 40 769 769 6.64509096950564 6.72982407048948 837 798 "Expected"
"62" "s01" "16:25:34" "s01:t062" 62 "Vague" "Matching" "LtoR" "Large" "'Choose a square with about 30 dots'" 36 976 976 6.88346258641309 6.64509096950564 769 758 "Expected"
"63" "s01" "26:35:44" "s01:t063" 63 "Crisp" "Matching" "RtoL" "Large" "'Choose a square with 44 dots'" 30 706 706 6.55961523749324 6.88346258641309 976 728 "Expected"
"64" "s01" "36:45:54" "s01:t064" 64 "Crisp" "Comparison" "RtoL" "Large" "'Choose a square with more than 40 dots'" 40 715 715 6.57228254269401 6.55961523749324 706 560 "Expected"
"65" "s01" "06:15:24" "s01:t065" 65 "Vague" "Comparison" "LtoR" "Small" "'Choose a square with far fewer than 20 dots'" 45 676 676 6.51619307604296 6.57228254269401 715 1233 "Expected"
"66" "s01" "16:25:34" "s01:t066" 66 "Vague" "Matching" "LtoR" "Large" "'Choose a square with about 30 dots'" 36 855 855 6.75110146893676 6.51619307604296 676 763 "Expected"
"67" "s01" "26:35:44" "s01:t067" 67 "Vague" "Comparison" "LtoR" "Small" "'Choose a square with far fewer than 40 dots'" 45 640 640 6.46146817635372 6.75110146893676 855 632 "Expected"
"68" "s01" "36:45:54" "s01:t068" 68 "Crisp" "Matching" "RtoL" "Large" "'Choose a square with 54 dots'" 30 693 693 6.5410299991899 6.46146817635372 640 512 "Expected"
"69" "s01" "06:15:24" "s01:t069" 69 "Crisp" "Comparison" "LtoR" "Large" "'Choose a square with more than 10 dots'" 40 770 770 6.64639051484773 6.5410299991899 693 443 "Expected"
"70" "s01" "16:25:34" "s01:t070" 70 "Vague" "Comparison" "LtoR" "Large" "'Choose a square with far more than 20 dots'" 44 654 654 6.4831073514572 6.64639051484773 770 655 "Expected"
"71" "s01" "26:35:44" "s01:t071" 71 "Crisp" "Comparison" "LtoR" "Small" "'Choose a square with fewer than 40 dots'" 41 649 649 6.47543271670409 6.4831073514572 654 791 "Expected"
"72" "s01" "36:45:54" "s01:t072" 72 "Crisp" "Matching" "LtoR" "Large" "'Choose a square with 54 dots'" 30 658 658 6.48920493132532 6.47543271670409 649 385 "Expected"
"73" "s01" "06:15:24" "s01:t073" 73 "Crisp" "Comparison" "RtoL" "Small" "'Choose a square with fewer than 20 dots'" 41 662 662 6.49526555593701 6.48920493132532 658 563 "Expected"
"74" "s01" "16:25:34" "s01:t074" 74 "Vague" "Comparison" "RtoL" "Small" "'Choose a square with far fewer than 30 dots'" 45 705 705 6.55819780281227 6.49526555593701 662 726 "Expected"
"75" "s01" "26:35:44" "s01:t075" 75 "Crisp" "Comparison" "RtoL" "Large" "'Choose a square with more than 30 dots'" 40 706 706 6.55961523749324 6.55819780281227 705 592 "Expected"
"76" "s01" "36:45:54" "s01:t076" 76 "Vague" "Comparison" "LtoR" "Large" "'Choose a square with far more than 40 dots'" 44 681 681 6.52356230614951 6.55961523749324 706 617 "Expected"
"77" "s01" "06:15:24" "s01:t077" 77 "Crisp" "Matching" "LtoR" "Large" "'Choose a square with 24 dots'" 30 671 671 6.50876913697168 6.52356230614951 681 498 "Expected"
"78" "s01" "16:25:34" "s01:t078" 78 "Vague" "Comparison" "LtoR" "Small" "'Choose a square with far fewer than 30 dots'" 45 833 833 6.72503364216684 6.50876913697168 671 558 "Expected"
"79" "s01" "26:35:44" "s01:t079" 79 "Crisp" "Matching" "LtoR" "Small" "'Choose a square with 26 dots'" 30 2718 2718 7.90765159471109 6.72503364216684 833 530 "Near"
"80" "s01" "36:45:54" "s01:t080" 80 "Crisp" "Comparison" "RtoL" "Large" "'Choose a square with more than 40 dots'" 40 1047 1047 6.95368421087054 7.90765159471109 2718 507 "Expected"
"81" "s01" "06:15:24" "s01:t081" 81 "Vague" "Matching" "RtoL" "Large" "'Choose a square with about 20 dots'" 36 767 767 6.64248680136726 6.95368421087054 1047 505 "Expected"
"82" "s01" "16:25:34" "s01:t082" 82 "Crisp" "Matching" "RtoL" "Small" "'Choose a square with 16 dots'" 30 1312 1312 7.17930796950403 6.64248680136726 767 490 "Expected"
"83" "s01" "26:35:44" "s01:t083" 83 "Crisp" "Matching" "RtoL" "Large" "'Choose a square with 44 dots'" 30 792 792 6.67456139181443 7.17930796950403 1312 439 "Expected"
"84" "s01" "36:45:54" "s01:t084" 84 "Crisp" "Comparison" "RtoL" "Small" "'Choose a square with fewer than 50 dots'" 41 1982 1982 7.59186171488993 6.67456139181443 792 523 "Expected"
"85" "s01" "06:15:24" "s01:t085" 85 "Crisp" "Comparison" "LtoR" "Small" "'Choose a square with fewer than 20 dots'" 41 602 602 6.40025744530882 7.59186171488993 1982 543 "Expected"
"86" "s01" "16:25:34" "s01:t086" 86 "Crisp" "Comparison" "LtoR" "Large" "'Choose a square with more than 20 dots'" 40 840 840 6.73340189183736 6.40025744530882 602 532 "Expected"
"87" "s01" "26:35:44" "s01:t087" 87 "Crisp" "Comparison" "RtoL" "Small" "'Choose a square with fewer than 40 dots'" 41 789 789 6.67076632084587 6.73340189183736 840 522 "Expected"
"88" "s01" "36:45:54" "s01:t088" 88 "Vague" "Comparison" "RtoL" "Small" "'Choose a square with far fewer than 50 dots'" 45 1077 1077 6.98193467715639 6.67076632084587 789 745 "Expected"
"89" "s01" "06:15:24" "s01:t089" 89 "Vague" "Matching" "RtoL" "Small" "'Choose a square with about 10 dots'" 36 1733 1733 7.45760928971561 6.98193467715639 1077 645 "Expected"
"90" "s01" "16:25:34" "s01:t090" 90 "Crisp" "Matching" "LtoR" "Large" "'Choose a square with 34 dots'" 30 801 801 6.68586094706836 7.45760928971561 1733 558 "Expected"
"91" "s01" "26:35:44" "s01:t091" 91 "Crisp" "Comparison" "LtoR" "Large" "'Choose a square with more than 30 dots'" 40 999 999 6.90675477864855 6.68586094706836 801 555 "Expected"
"92" "s01" "36:45:54" "s01:t092" 92 "Vague" "Comparison" "LtoR" "Small" "'Choose a square with far fewer than 50 dots'" 45 1813 1813 7.50273821075485 6.90675477864855 999 578 "Near"
"93" "s01" "06:15:24" "s01:t093" 93 "Crisp" "Matching" "RtoL" "Large" "'Choose a square with 24 dots'" 30 945 945 6.85118492749374 7.50273821075485 1813 460 "Expected"
"94" "s01" "16:25:34" "s01:t094" 94 "Crisp" "Matching" "RtoL" "Large" "'Choose a square with 34 dots'" 30 1122 1122 7.02286808608264 6.85118492749374 945 559 "Expected"
"95" "s01" "26:35:44" "s01:t095" 95 "Vague" "Matching" "RtoL" "Large" "'Choose a square with about 40 dots'" 36 1139 1139 7.03790596344718 7.02286808608264 1122 585 "Expected"
"96" "s01" "36:45:54" "s01:t096" 96 "Vague" "Matching" "RtoL" "Large" "'Choose a square with about 50 dots'" 36 1369 1369 7.22183582528845 7.03790596344718 1139 649 "Expected"
"97" "s01" "06:15:24" "s01:t097" 97 "Vague" "Matching" "LtoR" "Large" "'Choose a square with about 20 dots'" 36 1172 1172 7.06646697013696 7.22183582528845 1369 479 "Expected"
"98" "s01" "16:25:34" "s01:t098" 98 "Vague" "Matching" "RtoL" "Large" "'Choose a square with about 30 dots'" 36 806 806 6.69208374250663 7.06646697013696 1172 498 "Expected"
"99" "s01" "26:35:44" "s01:t099" 99 "Crisp" "Matching" "LtoR" "Large" "'Choose a square with 44 dots'" 30 668 668 6.50428817353665 6.69208374250663 806 540 "Expected"
"100" "s01" "36:45:54" "s01:t100" 100 "Vague" "Matching" "RtoL" "Small" "'Choose a square with about 40 dots'" 36 846 846 6.74051935960622 6.50428817353665 668 595 "Far"
"101" "s01" "06:15:24" "s01:t101" 101 "Vague" "Comparison" "LtoR" "Large" "'Choose a square with far more than 10 dots'" 44 613 613 6.41836493593621 6.74051935960622 846 1134 "Expected"
"102" "s01" "16:25:34" "s01:t102" 102 "Crisp" "Matching" "LtoR" "Small" "'Choose a square with 16 dots'" 30 967 967 6.87419849545329 6.41836493593621 613 599 "Expected"
"103" "s01" "26:35:44" "s01:t103" 103 "Vague" "Comparison" "LtoR" "Large" "'Choose a square with far more than 30 dots'" 44 643 643 6.46614472423762 6.87419849545329 967 684 "Expected"
"104" "s01" "36:45:54" "s01:t104" 104 "Vague" "Comparison" "RtoL" "Large" "'Choose a square with far more than 40 dots'" 44 619 619 6.4281052726846 6.46614472423762 643 667 "Expected"
"105" "s01" "06:15:24" "s01:t105" 105 "Crisp" "Comparison" "RtoL" "Large" "'Choose a square with more than 10 dots'" 40 820 820 6.7093043402583 6.4281052726846 619 644 "Expected"
"106" "s01" "16:25:34" "s01:t106" 106 "Vague" "Matching" "RtoL" "Small" "'Choose a square with about 20 dots'" 36 1776 1776 7.48211892355212 6.7093043402583 820 567 "Near"
"107" "s01" "26:35:44" "s01:t107" 107 "Vague" "Matching" "RtoL" "Small" "'Choose a square with about 30 dots'" 36 1381 1381 7.23056315340929 7.48211892355212 1776 512 "Far"
"108" "s01" "36:45:54" "s01:t108" 108 "Crisp" "Comparison" "LtoR" "Small" "'Choose a square with fewer than 50 dots'" 41 813 813 6.70073110954781 7.23056315340929 1381 563 "Expected"
"109" "s01" "06:15:24" "s01:t109" 109 "Vague" "Matching" "LtoR" "Small" "'Choose a square with about 10 dots'" 36 645 645 6.46925031679577 6.70073110954781 813 678 "Expected"
"110" "s01" "16:25:34" "s01:t110" 110 "Crisp" "Comparison" "RtoL" "Large" "'Choose a square with more than 20 dots'" 40 1080 1080 6.98471632011827 6.46925031679577 645 815 "Expected"
"111" "s01" "26:35:44" "s01:t111" 111 "Vague" "Comparison" "RtoL" "Large" "'Choose a square with far more than 30 dots'" 44 832 832 6.72383244082121 6.98471632011827 1080 608 "Expected"
"112" "s01" "36:45:54" "s01:t112" 112 "Crisp" "Matching" "LtoR" "Small" "'Choose a square with 36 dots'" 30 936 936 6.84161547647759 6.72383244082121 832 474 "Near"
"113" "s01" "06:15:24" "s01:t113" 113 "Crisp" "Matching" "RtoL" "Small" "'Choose a square with 6 dots'" 29 793 793 6.67582322163485 6.84161547647759 936 543 "Expected"
"114" "s01" "16:25:34" "s01:t114" 114 "Vague" "Comparison" "RtoL" "Large" "'Choose a square with far more than 20 dots'" 44 766 766 6.64118216974059 6.67582322163485 793 620 "Expected"
"115" "s01" "26:35:44" "s01:t115" 115 "Crisp" "Matching" "RtoL" "Small" "'Choose a square with 26 dots'" 30 1392 1392 7.23849684089437 6.64118216974059 766 505 "Near"
"116" "s01" "36:45:54" "s01:t116" 116 "Crisp" "Comparison" "LtoR" "Large" "'Choose a square with more than 40 dots'" 40 1083 1083 6.98749024700099 7.23849684089437 1392 469 "Expected"
"117" "s01" "06:15:24" "s01:t117" 117 "Crisp" "Matching" "LtoR" "Small" "'Choose a square with 6 dots'" 29 591 591 6.3818160174061 6.98749024700099 1083 539 "Expected"
"118" "s01" "16:25:34" "s01:t118" 118 "Vague" "Matching" "LtoR" "Small" "'Choose a square with about 20 dots'" 36 811 811 6.69826805411541 6.3818160174061 591 794 "Near"
"119" "s01" "26:35:44" "s01:t119" 119 "Vague" "Matching" "LtoR" "Large" "'Choose a square with about 40 dots'" 36 723 723 6.58340922215876 6.69826805411541 811 493 "Expected"
"120" "s01" "36:45:54" "s01:t120" 120 "Vague" "Matching" "LtoR" "Large" "'Choose a square with about 50 dots'" 36 661 661 6.49375383985169 6.58340922215876 723 521 "Expected"
"121" "s01" "06:15:24" "s01:t121" 121 "Vague" "Comparison" "RtoL" "Large" "'Choose a square with far more than 10 dots'" 44 1423 1423 7.26052259808985 6.49375383985169 661 621 "Expected"
"122" "s01" "16:25:34" "s01:t122" 122 "Crisp" "Comparison" "RtoL" "Small" "'Choose a square with fewer than 30 dots'" 41 963 963 6.87005341179813 7.26052259808985 1423 601 "Expected"
"123" "s01" "26:35:44" "s01:t123" 123 "Vague" "Matching" "LtoR" "Small" "'Choose a square with about 30 dots'" 36 927 927 6.83195356556585 6.87005341179813 963 657 "Far"
"124" "s01" "36:45:54" "s01:t124" 124 "Crisp" "Matching" "RtoL" "Small" "'Choose a square with 36 dots'" 30 889 889 6.7900972355139 6.83195356556585 927 526 "Far"
"125" "s01" "06:15:24" "s01:t125" 125 "Vague" "Comparison" "RtoL" "Small" "'Choose a square with far fewer than 20 dots'" 45 694 694 6.5424719605068 6.7900972355139 889 497 "Expected"
"126" "s01" "16:25:34" "s01:t126" 126 "Crisp" "Comparison" "LtoR" "Small" "'Choose a square with fewer than 30 dots'" 41 612 612 6.41673228251233 6.5424719605068 694 669 "Expected"
"127" "s01" "26:35:44" "s01:t127" 127 "Vague" "Comparison" "RtoL" "Small" "'Choose a square with far fewer than 40 dots'" 45 621 621 6.43133108193348 6.41673228251233 612 661 "Expected"
"128" "s01" "36:45:54" "s01:t128" 128 "Vague" "Matching" "LtoR" "Small" "'Choose a square with about 40 dots'" 36 651 651 6.47850964220857 6.43133108193348 621 551 "Far"
"129" "s01" "06:15:24" "s01:t129" 129 "Crisp" "Comparison" "RtoL" "Small" "'Choose a square with fewer than 20 dots'" 41 757 757 6.62936325343745 6.47850964220857 651 1276 "Expected"
"130" "s01" "16:25:34" "s01:t130" 130 "Crisp" "Comparison" "RtoL" "Large" "'Choose a square with more than 20 dots'" 40 621 621 6.43133108193348 6.62936325343745 757 745 "Expected"
"131" "s01" "26:35:44" "s01:t131" 131 "Vague" "Matching" "RtoL" "Small" "'Choose a square with about 30 dots'" 36 805 805 6.69084227741856 6.43133108193348 621 702 "Far"
"132" "s01" "36:45:54" "s01:t132" 132 "Vague" "Matching" "LtoR" "Large" "'Choose a square with about 50 dots'" 36 736 736 6.60123011872888 6.69084227741856 805 648 "Expected"
"133" "s01" "06:15:24" "s01:t133" 133 "Crisp" "Matching" "RtoL" "Small" "'Choose a square with 6 dots'" 29 569 569 6.34388043412633 6.60123011872888 736 524 "Expected"
"134" "s01" "16:25:34" "s01:t134" 134 "Crisp" "Matching" "RtoL" "Large" "'Choose a square with 34 dots'" 30 671 671 6.50876913697168 6.34388043412633 569 540 "Expected"
"135" "s01" "26:35:44" "s01:t135" 135 "Vague" "Matching" "RtoL" "Large" "'Choose a square with about 40 dots'" 36 636 636 6.45519856334012 6.50876913697168 671 495 "Expected"
"136" "s01" "36:45:54" "s01:t136" 136 "Vague" "Comparison" "LtoR" "Large" "'Choose a square with far more than 40 dots'" 44 554 554 6.31716468674728 6.45519856334012 636 510 "Expected"
"137" "s01" "06:15:24" "s01:t137" 137 "Vague" "Comparison" "LtoR" "Small" "'Choose a square with far fewer than 20 dots'" 45 577 577 6.3578422665081 6.31716468674728 554 598 "Expected"
"138" "s01" "16:25:34" "s01:t138" 138 "Crisp" "Matching" "LtoR" "Small" "'Choose a square with 16 dots'" 30 698 698 6.54821910276237 6.3578422665081 577 659 "Expected"
"139" "s01" "26:35:44" "s01:t139" 139 "Vague" "Matching" "LtoR" "Large" "'Choose a square with about 40 dots'" 36 565 565 6.33682573114644 6.54821910276237 698 512 "Expected"
"140" "s01" "36:45:54" "s01:t140" 140 "Crisp" "Matching" "RtoL" "Large" "'Choose a square with 54 dots'" 30 654 654 6.4831073514572 6.33682573114644 565 496 "Expected"
"141" "s01" "06:15:24" "s01:t141" 141 "Crisp" "Matching" "LtoR" "Large" "'Choose a square with 24 dots'" 30 673 673 6.51174532964473 6.4831073514572 654 558 "Expected"
"142" "s01" "16:25:34" "s01:t142" 142 "Vague" "Comparison" "RtoL" "Small" "'Choose a square with far fewer than 30 dots'" 45 892 892 6.79346613258001 6.51174532964473 673 529 "Expected"
"143" "s01" "26:35:44" "s01:t143" 143 "Crisp" "Matching" "LtoR" "Large" "'Choose a square with 44 dots'" 30 636 636 6.45519856334012 6.79346613258001 892 470 "Expected"
"144" "s01" "36:45:54" "s01:t144" 144 "Vague" "Matching" "RtoL" "Large" "'Choose a square with about 50 dots'" 36 559 559 6.3261494731551 6.45519856334012 636 539 "Expected"
"145" "s01" "06:15:24" "s01:t145" 145 "Crisp" "Matching" "LtoR" "Small" "'Choose a square with 6 dots'" 29 570 570 6.3456363608286 6.3261494731551 559 491 "Expected"
"146" "s01" "16:25:34" "s01:t146" 146 "Vague" "Matching" "RtoL" "Small" "'Choose a square with about 20 dots'" 36 1415 1415 7.25488481007734 6.3456363608286 570 531 "Expected"
"147" "s01" "26:35:44" "s01:t147" 147 "Crisp" "Matching" "LtoR" "Small" "'Choose a square with 26 dots'" 30 1715 1715 7.44716835960004 7.25488481007734 1415 436 "Near"
"148" "s01" "36:45:54" "s01:t148" 148 "Vague" "Comparison" "RtoL" "Small" "'Choose a square with far fewer than 50 dots'" 45 710 710 6.56526497003536 7.44716835960004 1715 822 "Expected"
"149" "s01" "06:15:24" "s01:t149" 149 "Vague" "Matching" "LtoR" "Small" "'Choose a square with about 10 dots'" 36 689 689 6.53524127101366 6.56526497003536 710 540 "Expected"
"150" "s01" "16:25:34" "s01:t150" 150 "Vague" "Matching" "LtoR" "Large" "'Choose a square with about 30 dots'" 36 700 700 6.5510803350434 6.53524127101366 689 503 "Expected"
"151" "s01" "26:35:44" "s01:t151" 151 "Vague" "Comparison" "LtoR" "Large" "'Choose a square with far more than 30 dots'" 44 943 943 6.84906628263346 6.5510803350434 700 522 "Expected"
"152" "s01" "36:45:54" "s01:t152" 152 "Crisp" "Matching" "LtoR" "Small" "'Choose a square with 36 dots'" 30 702 702 6.55393340402581 6.84906628263346 943 622 "Far"
"153" "s01" "06:15:24" "s01:t153" 153 "Vague" "Matching" "RtoL" "Small" "'Choose a square with about 10 dots'" 36 644 644 6.46769872610435 6.55393340402581 702 611 "Expected"
"154" "s01" "16:25:34" "s01:t154" 154 "Vague" "Comparison" "LtoR" "Small" "'Choose a square with far fewer than 30 dots'" 45 661 661 6.49375383985169 6.46769872610435 644 621 "Expected"
"155" "s01" "26:35:44" "s01:t155" 155 "Crisp" "Comparison" "RtoL" "Large" "'Choose a square with more than 30 dots'" 40 728 728 6.59030104819669 6.49375383985169 661 565 "Expected"
"156" "s01" "36:45:54" "s01:t156" 156 "Crisp" "Comparison" "RtoL" "Large" "'Choose a square with more than 40 dots'" 40 624 624 6.43615036836943 6.59030104819669 728 550 "Expected"
"157" "s01" "06:15:24" "s01:t157" 157 "Vague" "Comparison" "LtoR" "Large" "'Choose a square with far more than 10 dots'" 44 695 695 6.54391184556479 6.43615036836943 624 505 "Expected"
"158" "s01" "16:25:34" "s01:t158" 158 "Crisp" "Matching" "RtoL" "Small" "'Choose a square with 16 dots'" 30 805 805 6.69084227741856 6.54391184556479 695 662 "Expected"
"159" "s01" "26:35:44" "s01:t159" 159 "Crisp" "Matching" "RtoL" "Small" "'Choose a square with 26 dots'" 30 1173 1173 7.06731984865348 6.69084227741856 805 495 "Near"
"160" "s01" "36:45:54" "s01:t160" 160 "Crisp" "Matching" "RtoL" "Small" "'Choose a square with 36 dots'" 30 714 714 6.57088296233958 7.06731984865348 1173 387 "Far"
"161" "s01" "06:15:24" "s01:t161" 161 "Crisp" "Matching" "RtoL" "Large" "'Choose a square with 24 dots'" 30 1050 1050 6.95654544315157 6.57088296233958 714 584 "Expected"
"162" "s01" "16:25:34" "s01:t162" 162 "Vague" "Comparison" "LtoR" "Large" "'Choose a square with far more than 20 dots'" 44 615 615 6.42162226780652 6.95654544315157 1050 597 "Expected"
"163" "s01" "26:35:44" "s01:t163" 163 "Vague" "Comparison" "LtoR" "Small" "'Choose a square with far fewer than 40 dots'" 45 571 571 6.34738920965601 6.42162226780652 615 551 "Far"
"164" "s01" "36:45:54" "s01:t164" 164 "Crisp" "Comparison" "LtoR" "Small" "'Choose a square with fewer than 50 dots'" 41 780 780 6.65929391968364 6.34738920965601 571 502 "Expected"
"165" "s01" "06:15:24" "s01:t165" 165 "Crisp" "Comparison" "LtoR" "Small" "'Choose a square with fewer than 20 dots'" 41 507 507 6.22851100359118 6.65929391968364 780 737 "Expected"
"166" "s01" "16:25:34" "s01:t166" 166 "Crisp" "Comparison" "RtoL" "Small" "'Choose a square with fewer than 30 dots'" 41 686 686 6.53087762772588 6.22851100359118 507 728 "Expected"
"167" "s01" "26:35:44" "s01:t167" 167 "Vague" "Matching" "LtoR" "Small" "'Choose a square with about 30 dots'" 36 840 840 6.73340189183736 6.53087762772588 686 757 "Far"
"168" "s01" "36:45:54" "s01:t168" 168 "Crisp" "Matching" "LtoR" "Large" "'Choose a square with 54 dots'" 30 706 706 6.55961523749324 6.73340189183736 840 633 "Expected"
"169" "s01" "06:15:24" "s01:t169" 169 "Crisp" "Comparison" "LtoR" "Large" "'Choose a square with more than 10 dots'" 40 554 554 6.31716468674728 6.55961523749324 706 600 "Expected"
"170" "s01" "16:25:34" "s01:t170" 170 "Vague" "Matching" "RtoL" "Large" "'Choose a square with about 30 dots'" 36 637 637 6.45676965557216 6.31716468674728 554 622 "Expected"
"171" "s01" "26:35:44" "s01:t171" 171 "Crisp" "Comparison" "LtoR" "Small" "'Choose a square with fewer than 40 dots'" 41 647 647 6.4723462945009 6.45676965557216 637 623 "Expected"
"172" "s01" "36:45:54" "s01:t172" 172 "Vague" "Matching" "RtoL" "Small" "'Choose a square with about 40 dots'" 36 899 899 6.80128303447162 6.4723462945009 647 762 "Far"
"173" "s01" "06:15:24" "s01:t173" 173 "Crisp" "Comparison" "RtoL" "Large" "'Choose a square with more than 10 dots'" 40 806 806 6.69208374250663 6.80128303447162 899 554 "Expected"
"174" "s01" "16:25:34" "s01:t174" 174 "Vague" "Comparison" "RtoL" "Large" "'Choose a square with far more than 20 dots'" 44 734 734 6.59850902861452 6.69208374250663 806 680 "Expected"
"175" "s01" "26:35:44" "s01:t175" 175 "Crisp" "Comparison" "RtoL" "Small" "'Choose a square with fewer than 40 dots'" 41 589 589 6.37842618365159 6.59850902861452 734 844 "Expected"
"176" "s01" "36:45:54" "s01:t176" 176 "Crisp" "Comparison" "RtoL" "Small" "'Choose a square with fewer than 50 dots'" 41 1032 1032 6.93925394604151 6.37842618365159 589 808 "Expected"
"177" "s01" "06:15:24" "s01:t177" 177 "Vague" "Comparison" "RtoL" "Large" "'Choose a square with far more than 10 dots'" 44 574 574 6.35262939631957 6.93925394604151 1032 778 "Expected"
"178" "s01" "16:25:34" "s01:t178" 178 "Crisp" "Matching" "LtoR" "Large" "'Choose a square with 34 dots'" 30 610 610 6.41345895716736 6.35262939631957 574 601 "Expected"
"179" "s01" "26:35:44" "s01:t179" 179 "Vague" "Comparison" "RtoL" "Large" "'Choose a square with far more than 30 dots'" 44 670 670 6.50727771238501 6.41345895716736 610 811 "Expected"
"180" "s01" "36:45:54" "s01:t180" 180 "Vague" "Matching" "LtoR" "Small" "'Choose a square with about 40 dots'" 36 645 645 6.46925031679577 6.50727771238501 670 628 "Far"
"181" "s01" "06:15:24" "s01:t181" 181 "Vague" "Comparison" "RtoL" "Small" "'Choose a square with far fewer than 20 dots'" 45 601 601 6.39859493453521 6.46925031679577 645 542 "Expected"
"182" "s01" "16:25:34" "s01:t182" 182 "Crisp" "Comparison" "LtoR" "Large" "'Choose a square with more than 20 dots'" 40 938 938 6.84374994900622 6.39859493453521 601 651 "Expected"
"183" "s01" "26:35:44" "s01:t183" 183 "Vague" "Comparison" "RtoL" "Small" "'Choose a square with far fewer than 40 dots'" 45 724 724 6.58479139238572 6.84374994900622 938 776 "Expected"
"184" "s01" "36:45:54" "s01:t184" 184 "Crisp" "Comparison" "LtoR" "Large" "'Choose a square with more than 40 dots'" 40 493 493 6.20050917404269 6.58479139238572 724 745 "Expected"
"185" "s01" "06:15:24" "s01:t185" 185 "Vague" "Matching" "RtoL" "Large" "'Choose a square with about 20 dots'" 36 671 671 6.50876913697168 6.20050917404269 493 739 "Expected"
"186" "s01" "16:25:34" "s01:t186" 186 "Crisp" "Comparison" "LtoR" "Small" "'Choose a square with fewer than 30 dots'" 41 617 617 6.42486902390539 6.50876913697168 671 582 "Expected"
"187" "s01" "26:35:44" "s01:t187" 187 "Crisp" "Matching" "RtoL" "Large" "'Choose a square with 44 dots'" 30 579 579 6.361302477573 6.42486902390539 617 626 "Expected"
"188" "s01" "36:45:54" "s01:t188" 188 "Vague" "Comparison" "RtoL" "Large" "'Choose a square with far more than 40 dots'" 44 928 928 6.8330317327862 6.361302477573 579 598 "Expected"
"189" "s01" "06:15:24" "s01:t189" 189 "Vague" "Matching" "LtoR" "Large" "'Choose a square with about 20 dots'" 36 1261 1261 7.13966033596492 6.8330317327862 928 638 "Expected"
"190" "s01" "16:25:34" "s01:t190" 190 "Vague" "Matching" "LtoR" "Small" "'Choose a square with about 20 dots'" 36 1637 1637 7.40062057737113 7.13966033596492 1261 519 "Near"
"191" "s01" "26:35:44" "s01:t191" 191 "Crisp" "Comparison" "LtoR" "Large" "'Choose a square with more than 30 dots'" 40 744 744 6.61204103483309 7.40062057737113 1637 616 "Expected"
"192" "s01" "36:45:54" "s01:t192" 192 "Vague" "Comparison" "LtoR" "Small" "'Choose a square with far fewer than 50 dots'" 45 614 614 6.41999492814714 6.61204103483309 744 615 "Expected"
"193" "s10" "06:15:24" "s10:t001" 1 "Crisp" "Comparison" "LtoR" "Large" "'Choose a square with more than 10 dots'" 40 2355 2355 7.76429600645052 6.41999492814714 614 2271 "Near"
"194" "s10" "16:25:34" "s10:t002" 2 "Crisp" "Comparison" "LtoR" "Large" "'Choose a square with more than 20 dots'" 40 3854 3854 8.25686684897431 7.76429600645052 2355 1277 "Far"
"195" "s10" "26:35:44" "s10:t003" 3 "Vague" "Comparison" "RtoL" "Small" "'Choose a square with far fewer than 40 dots'" 45 2284 2284 7.7336835707759 8.25686684897431 3854 2089 "Expected"
"196" "s10" "36:45:54" "s10:t004" 4 "Crisp" "Comparison" "RtoL" "Small" "'Choose a square with fewer than 50 dots'" 41 2360 2360 7.76641689801966 7.7336835707759 2284 1746 "Near"
"197" "s10" "06:15:24" "s10:t005" 5 "Crisp" "Matching" "LtoR" "Small" "'Choose a square with 6 dots'" 29 1471 1471 7.29369772060144 7.76641689801966 2360 1629 "Expected"
"198" "s10" "16:25:34" "s10:t006" 6 "Vague" "Comparison" "LtoR" "Large" "'Choose a square with far more than 20 dots'" 44 2366 2366 7.76895604453833 7.29369772060144 1471 1128 "Near"
"199" "s10" "26:35:44" "s10:t007" 7 "Crisp" "Matching" "RtoL" "Small" "'Choose a square with 26 dots'" 30 4059 4059 8.3086919168389 7.76895604453833 2366 760 "Expected"
"200" "s10" "36:45:54" "s10:t008" 8 "Crisp" "Comparison" "LtoR" "Small" "'Choose a square with fewer than 50 dots'" 41 4586 4586 8.43076346341785 8.3086919168389 4059 792 "Expected"
"201" "s10" "06:15:24" "s10:t009" 9 "Crisp" "Matching" "RtoL" "Large" "'Choose a square with 24 dots'" 30 4847 4847 8.48611523584538 8.43076346341785 4586 748 "Near"
"202" "s10" "16:25:34" "s10:t010" 10 "Crisp" "Matching" "RtoL" "Small" "'Choose a square with 16 dots'" 30 3650 3650 8.20248244657654 8.48611523584538 4847 1430 "Expected"
"203" "s10" "26:35:44" "s10:t011" 11 "Crisp" "Comparison" "LtoR" "Large" "'Choose a square with more than 30 dots'" 40 3682 3682 8.21121136179302 8.20248244657654 3650 476 "Expected"
"204" "s10" "36:45:54" "s10:t012" 12 "Vague" "Comparison" "LtoR" "Large" "'Choose a square with far more than 40 dots'" 44 1848 1848 7.52185925220163 8.21121136179302 3682 2956 "Expected"
"205" "s10" "06:15:24" "s10:t013" 13 "Crisp" "Matching" "RtoL" "Small" "'Choose a square with 6 dots'" 29 2163 2163 7.67925142595306 7.52185925220163 1848 1325 "Near"
"206" "s10" "16:25:34" "s10:t014" 14 "Vague" "Matching" "LtoR" "Large" "'Choose a square with about 30 dots'" 36 3878 3878 8.2630748358026 7.67925142595306 2163 1276 "Near"
"207" "s10" "26:35:44" "s10:t015" 15 "Crisp" "Comparison" "LtoR" "Small" "'Choose a square with fewer than 40 dots'" 41 3670 3670 8.20794694104862 8.2630748358026 3878 456 "Expected"
"208" "s10" "36:45:54" "s10:t016" 16 "Vague" "Matching" "RtoL" "Large" "'Choose a square with about 50 dots'" 36 3106 3106 8.04109100370863 8.20794694104862 3670 145 "Near"
"209" "s10" "06:15:24" "s10:t017" 17 "Vague" "Matching" "RtoL" "Small" "'Choose a square with about 10 dots'" 36 6271 6271 8.74369111054302 8.04109100370863 3106 490 "Expected"
"210" "s10" "16:25:34" "s10:t018" 18 "Crisp" "Matching" "RtoL" "Large" "'Choose a square with 34 dots'" 30 3479 3479 8.15450017515194 8.74369111054302 6271 265 "Near"
"211" "s10" "26:35:44" "s10:t019" 19 "Crisp" "Comparison" "RtoL" "Large" "'Choose a square with more than 30 dots'" 40 1820 1820 7.50659178007084 8.15450017515194 3479 1184 "Expected"
"212" "s10" "36:45:54" "s10:t020" 20 "Vague" "Matching" "LtoR" "Large" "'Choose a square with about 50 dots'" 36 3181 3181 8.06495089174914 7.50659178007084 1820 993 "Expected"
"213" "s10" "06:15:24" "s10:t021" 21 "Vague" "Comparison" "LtoR" "Large" "'Choose a square with far more than 10 dots'" 44 1760 1760 7.4730690880322 8.06495089174914 3181 1760 "Expected"
"214" "s10" "16:25:34" "s10:t022" 22 "Crisp" "Matching" "LtoR" "Large" "'Choose a square with 34 dots'" 30 2183 2183 7.68845535654994 7.4730690880322 1760 1560 "Near"
"215" "s10" "26:35:44" "s10:t023" 23 "Vague" "Comparison" "LtoR" "Large" "'Choose a square with far more than 30 dots'" 44 3070 3070 8.02943284058124 7.68845535654994 2183 1303 "Expected"
"216" "s10" "36:45:54" "s10:t024" 24 "Vague" "Comparison" "LtoR" "Small" "'Choose a square with far fewer than 50 dots'" 45 3506 3506 8.16223106548118 8.02943284058124 3070 1862 "Expected"
"217" "s10" "06:15:24" "s10:t025" 25 "Crisp" "Comparison" "RtoL" "Small" "'Choose a square with fewer than 20 dots'" 41 3643 3643 8.20056279700856 8.16223106548118 3506 378 "Expected"
"218" "s10" "16:25:34" "s10:t026" 26 "Crisp" "Comparison" "RtoL" "Small" "'Choose a square with fewer than 30 dots'" 41 3023 3023 8.01400499477946 8.20056279700856 3643 1519 "Expected"
"219" "s10" "26:35:44" "s10:t027" 27 "Vague" "Matching" "LtoR" "Large" "'Choose a square with about 40 dots'" 36 2435 2435 7.79770203551669 8.01400499477946 3023 1424 "Far"
"220" "s10" "36:45:54" "s10:t028" 28 "Crisp" "Comparison" "RtoL" "Large" "'Choose a square with more than 40 dots'" 40 1603 1603 7.37963215260955 7.79770203551669 2435 1091 "Expected"
"221" "s10" "06:15:24" "s10:t029" 29 "Vague" "Comparison" "RtoL" "Large" "'Choose a square with far more than 10 dots'" 44 2000 2000 7.60090245954208 7.37963215260955 1603 1960 "Expected"
"222" "s10" "16:25:34" "s10:t030" 30 "Vague" "Matching" "RtoL" "Large" "'Choose a square with about 30 dots'" 36 1823 1823 7.50823877467866 7.60090245954208 2000 1502 "Near"
"223" "s10" "26:35:44" "s10:t031" 31 "Vague" "Matching" "RtoL" "Small" "'Choose a square with about 30 dots'" 36 3592 3592 8.18646442942209 7.50823877467866 1823 717 "Expected"
"224" "s10" "36:45:54" "s10:t032" 32 "Crisp" "Matching" "LtoR" "Large" "'Choose a square with 54 dots'" 30 3156 3156 8.05706068196577 8.18646442942209 3592 1342 "Far"
"225" "s10" "06:15:24" "s10:t033" 33 "Crisp" "Comparison" "RtoL" "Large" "'Choose a square with more than 10 dots'" 40 1713 1713 7.44600149832412 8.05706068196577 3156 865 "Expected"
"226" "s10" "16:25:34" "s10:t034" 34 "Crisp" "Comparison" "LtoR" "Small" "'Choose a square with fewer than 30 dots'" 41 2544 2544 7.84149292446001 7.44600149832412 1713 1379 "Expected"
"227" "s10" "26:35:44" "s10:t035" 35 "Crisp" "Comparison" "RtoL" "Small" "'Choose a square with fewer than 40 dots'" 41 2616 2616 7.86940171257709 7.84149292446001 2544 1603 "Expected"
"228" "s10" "36:45:54" "s10:t036" 36 "Vague" "Comparison" "RtoL" "Large" "'Choose a square with far more than 40 dots'" 44 1176 1176 7.06987412845857 7.86940171257709 2616 1106 "Expected"
"229" "s10" "06:15:24" "s10:t037" 37 "Crisp" "Comparison" "LtoR" "Small" "'Choose a square with fewer than 20 dots'" 41 1487 1487 7.30451594646016 7.06987412845857 1176 1013 "Expected"
"230" "s10" "16:25:34" "s10:t038" 38 "Vague" "Comparison" "RtoL" "Large" "'Choose a square with far more than 20 dots'" 44 2356 2356 7.76472054477148 7.30451594646016 1487 1233 "Expected"
"231" "s10" "26:35:44" "s10:t039" 39 "Crisp" "Matching" "RtoL" "Large" "'Choose a square with 44 dots'" 30 3908 3908 8.27078101316267 7.76472054477148 2356 1365 "Expected"
"232" "s10" "36:45:54" "s10:t040" 40 "Vague" "Matching" "RtoL" "Small" "'Choose a square with about 40 dots'" 36 1514 1514 7.32251043399739 8.27078101316267 3908 1366 "Near"
"233" "s10" "06:15:24" "s10:t041" 41 "Crisp" "Matching" "LtoR" "Large" "'Choose a square with 24 dots'" 30 1950 1950 7.57558465155779 7.32251043399739 1514 988 "Near"
"234" "s10" "16:25:34" "s10:t042" 42 "Vague" "Matching" "RtoL" "Small" "'Choose a square with about 20 dots'" 36 2197 2197 7.69484807238461 7.57558465155779 1950 944 "Expected"
"235" "s10" "26:35:44" "s10:t043" 43 "Crisp" "Matching" "LtoR" "Large" "'Choose a square with 44 dots'" 30 2745 2745 7.91753635394363 7.69484807238461 2197 724 "Near"
"236" "s10" "36:45:54" "s10:t044" 44 "Vague" "Matching" "LtoR" "Small" "'Choose a square with about 40 dots'" 36 2145 2145 7.67089483136212 7.91753635394363 2745 1182 "Expected"
"237" "s10" "06:15:24" "s10:t045" 45 "Vague" "Comparison" "RtoL" "Small" "'Choose a square with far fewer than 20 dots'" 45 1791 1791 7.49052940206071 7.67089483136212 2145 331 "Expected"
"238" "s10" "16:25:34" "s10:t046" 46 "Crisp" "Comparison" "RtoL" "Large" "'Choose a square with more than 20 dots'" 40 1422 1422 7.25981961036319 7.49052940206071 1791 1486 "Expected"
"239" "s10" "26:35:44" "s10:t047" 47 "Vague" "Comparison" "LtoR" "Small" "'Choose a square with far fewer than 40 dots'" 45 2573 2573 7.85282781228174 7.25981961036319 1422 1652 "Expected"
"240" "s10" "36:45:54" "s10:t048" 48 "Crisp" "Matching" "RtoL" "Small" "'Choose a square with 36 dots'" 30 2844 2844 7.95296679092313 7.85282781228174 2573 1183 "Expected"
"241" "s10" "06:15:24" "s10:t049" 49 "Vague" "Matching" "RtoL" "Large" "'Choose a square with about 20 dots'" 36 2014 2014 7.60787807327851 7.95296679092313 2844 1020 "Near"
"242" "s10" "16:25:34" "s10:t050" 50 "Crisp" "Matching" "LtoR" "Small" "'Choose a square with 16 dots'" 30 3552 3552 8.17526610411206 7.60787807327851 2014 990 "Expected"
"243" "s10" "26:35:44" "s10:t051" 51 "Vague" "Matching" "RtoL" "Large" "'Choose a square with about 40 dots'" 36 3150 3150 8.05515773181968 8.17526610411206 3552 1286 "Far"
"244" "s10" "36:45:54" "s10:t052" 52 "Crisp" "Matching" "LtoR" "Small" "'Choose a square with 36 dots'" 30 2822 2822 7.94520113241276 8.05515773181968 3150 988 "Expected"
"245" "s10" "06:15:24" "s10:t053" 53 "Vague" "Comparison" "LtoR" "Small" "'Choose a square with far fewer than 20 dots'" 45 1185 1185 7.07749805356923 7.94520113241276 2822 1263 "Expected"
"246" "s10" "16:25:34" "s10:t054" 54 "Vague" "Comparison" "LtoR" "Small" "'Choose a square with far fewer than 30 dots'" 45 2448 2448 7.80302664363222 7.07749805356923 1185 4095 "Expected"
"247" "s10" "26:35:44" "s10:t055" 55 "Crisp" "Matching" "LtoR" "Small" "'Choose a square with 26 dots'" 30 3239 3239 8.08301991917133 7.80302664363222 2448 1271 "Expected"
"248" "s10" "36:45:54" "s10:t056" 56 "Crisp" "Matching" "RtoL" "Large" "'Choose a square with 54 dots'" 30 3508 3508 8.16280135349207 8.08301991917133 3239 1041 "Expected"
"249" "s10" "06:15:24" "s10:t057" 57 "Vague" "Matching" "LtoR" "Small" "'Choose a square with about 10 dots'" 36 9582 9582 9.16764161744307 8.16280135349207 3508 796 "Expected"
"250" "s10" "16:25:34" "s10:t058" 58 "Vague" "Matching" "LtoR" "Small" "'Choose a square with about 20 dots'" 36 3647 3647 8.20166019080868 9.16764161744307 9582 1529 "Expected"
"251" "s10" "26:35:44" "s10:t059" 59 "Vague" "Matching" "LtoR" "Small" "'Choose a square with about 30 dots'" 36 3192 3192 8.0684029585697 8.20166019080868 3647 3546 "Expected"
"252" "s10" "36:45:54" "s10:t060" 60 "Vague" "Comparison" "RtoL" "Small" "'Choose a square with far fewer than 50 dots'" 45 2735 2735 7.91388671485608 8.0684029585697 3192 1188 "Expected"
"253" "s10" "06:15:24" "s10:t061" 61 "Vague" "Matching" "LtoR" "Large" "'Choose a square with about 20 dots'" 36 2093 2093 7.646353722446 7.91388671485608 2735 1029 "Near"
"254" "s10" "16:25:34" "s10:t062" 62 "Vague" "Comparison" "RtoL" "Small" "'Choose a square with far fewer than 30 dots'" 45 3347 3347 8.11581970121133 7.646353722446 2093 1490 "Expected"
"255" "s10" "26:35:44" "s10:t063" 63 "Vague" "Comparison" "RtoL" "Large" "'Choose a square with far more than 30 dots'" 44 1432 1432 7.26682734752059 8.11581970121133 3347 1720 "Expected"
"256" "s10" "36:45:54" "s10:t064" 64 "Crisp" "Comparison" "LtoR" "Large" "'Choose a square with more than 40 dots'" 40 2230 2230 7.70975686445416 7.26682734752059 1432 1013 "Expected"
"257" "s10" "06:15:24" "s10:t065" 65 "Vague" "Matching" "LtoR" "Small" "'Choose a square with about 10 dots'" 36 3145 3145 8.05356916913454 7.70975686445416 2230 2228 "Expected"
"258" "s10" "16:25:34" "s10:t066" 66 "Vague" "Comparison" "RtoL" "Large" "'Choose a square with far more than 20 dots'" 44 1337 1337 7.19818357710194 8.05356916913454 3145 1222 "Expected"
"259" "s10" "26:35:44" "s10:t067" 67 "Vague" "Matching" "RtoL" "Small" "'Choose a square with about 30 dots'" 36 2315 2315 7.74716496652033 7.19818357710194 1337 1898 "Expected"
"260" "s10" "36:45:54" "s10:t068" 68 "Crisp" "Matching" "LtoR" "Large" "'Choose a square with 54 dots'" 30 3010 3010 8.00969535774292 7.74716496652033 2315 1014 "Far"
"261" "s10" "06:15:24" "s10:t069" 69 "Crisp" "Comparison" "RtoL" "Small" "'Choose a square with fewer than 20 dots'" 41 1429 1429 7.26473017792987 8.00969535774292 3010 1018 "Expected"
"262" "s10" "16:25:34" "s10:t070" 70 "Crisp" "Comparison" "LtoR" "Large" "'Choose a square with more than 20 dots'" 40 1534 1534 7.3356339819272 7.26473017792987 1429 1808 "Expected"
"263" "s10" "26:35:44" "s10:t071" 71 "Crisp" "Comparison" "RtoL" "Small" "'Choose a square with fewer than 40 dots'" 41 3726 3726 8.22309055116153 7.3356339819272 1534 1991 "Expected"
"264" "s10" "36:45:54" "s10:t072" 72 "Vague" "Matching" "RtoL" "Small" "'Choose a square with about 40 dots'" 36 2216 2216 7.70345904786717 8.22309055116153 3726 1006 "Near"
"265" "s10" "06:15:24" "s10:t073" 73 "Vague" "Comparison" "LtoR" "Large" "'Choose a square with far more than 10 dots'" 44 2539 2539 7.83952558170468 7.70345904786717 2216 1193 "Expected"
"266" "s10" "16:25:34" "s10:t074" 74 "Vague" "Matching" "RtoL" "Large" "'Choose a square with about 30 dots'" 36 3103 3103 8.04012466444838 7.83952558170468 2539 855 "Far"
"267" "s10" "26:35:44" "s10:t075" 75 "Vague" "Comparison" "LtoR" "Large" "'Choose a square with far more than 30 dots'" 44 1493 1493 7.30854279753919 8.04012466444838 3103 1743 "Expected"
"268" "s10" "36:45:54" "s10:t076" 76 "Crisp" "Comparison" "RtoL" "Large" "'Choose a square with more than 40 dots'" 40 1507 1507 7.3178761986265 7.30854279753919 1493 1607 "Expected"
"269" "s10" "06:15:24" "s10:t077" 77 "Vague" "Matching" "RtoL" "Large" "'Choose a square with about 20 dots'" 36 2856 2856 7.95717732345947 7.3178761986265 1507 1421 "Near"
"270" "s10" "16:25:34" "s10:t078" 78 "Crisp" "Matching" "RtoL" "Large" "'Choose a square with 34 dots'" 30 3283 3283 8.09651291750159 7.95717732345947 2856 335 "Near"
"271" "s10" "26:35:44" "s10:t079" 79 "Vague" "Matching" "RtoL" "Large" "'Choose a square with about 40 dots'" 36 2552 2552 7.84463264446468 8.09651291750159 3283 1379 "Near"
"272" "s10" "36:45:54" "s10:t080" 80 "Vague" "Comparison" "RtoL" "Large" "'Choose a square with far more than 40 dots'" 44 1881 1881 7.53955882930103 7.84463264446468 2552 1995 "Expected"
"273" "s10" "06:15:24" "s10:t081" 81 "Vague" "Comparison" "RtoL" "Small" "'Choose a square with far fewer than 20 dots'" 45 1864 1864 7.53047999524554 7.53955882930103 1881 2069 "Expected"
"274" "s10" "16:25:34" "s10:t082" 82 "Vague" "Matching" "LtoR" "Large" "'Choose a square with about 30 dots'" 36 3276 3276 8.09437844497296 7.53047999524554 1864 1765 "Near"
"275" "s10" "26:35:44" "s10:t083" 83 "Crisp" "Comparison" "LtoR" "Large" "'Choose a square with more than 30 dots'" 40 1384 1384 7.23273313617761 8.09437844497296 3276 1238 "Expected"
"276" "s10" "36:45:54" "s10:t084" 84 "Vague" "Comparison" "RtoL" "Small" "'Choose a square with far fewer than 50 dots'" 45 4600 4600 8.43381158247719 7.23273313617761 1384 973 "Expected"
"277" "s10" "06:15:24" "s10:t085" 85 "Crisp" "Matching" "LtoR" "Small" "'Choose a square with 6 dots'" 29 2485 2485 7.81802793853073 8.43381158247719 4600 985 "Expected"
"278" "s10" "16:25:34" "s10:t086" 86 "Crisp" "Comparison" "RtoL" "Large" "'Choose a square with more than 20 dots'" 40 1530 1530 7.33302301438648 7.81802793853073 2485 1066 "Expected"
"279" "s10" "26:35:44" "s10:t087" 87 "Vague" "Comparison" "RtoL" "Small" "'Choose a square with far fewer than 40 dots'" 45 3895 3895 8.26744895830485 7.33302301438648 1530 938 "Expected"
"280" "s10" "36:45:54" "s10:t088" 88 "Crisp" "Matching" "RtoL" "Large" "'Choose a square with 54 dots'" 30 4097 4097 8.31801027754687 8.26744895830485 3895 849 "Far"
"281" "s10" "06:15:24" "s10:t089" 89 "Vague" "Comparison" "RtoL" "Large" "'Choose a square with far more than 10 dots'" 44 1755 1755 7.47022413589997 8.31801027754687 4097 1141 "Expected"
"282" "s10" "16:25:34" "s10:t090" 90 "Crisp" "Comparison" "RtoL" "Small" "'Choose a square with fewer than 30 dots'" 41 2462 2462 7.8087293067444 7.47022413589997 1755 979 "Expected"
"283" "s10" "26:35:44" "s10:t091" 91 "Crisp" "Matching" "RtoL" "Large" "'Choose a square with 44 dots'" 30 2638 2638 7.87777633327726 7.8087293067444 2462 604 "Near"
"284" "s10" "36:45:54" "s10:t092" 92 "Crisp" "Matching" "LtoR" "Small" "'Choose a square with 36 dots'" 30 2306 2306 7.743269700829 7.87777633327726 2638 749 "Expected"
"285" "s10" "06:15:24" "s10:t093" 93 "Crisp" "Matching" "LtoR" "Large" "'Choose a square with 24 dots'" 30 2365 2365 7.76853330092603 7.743269700829 2306 885 "Near"
"286" "s10" "16:25:34" "s10:t094" 94 "Crisp" "Matching" "RtoL" "Small" "'Choose a square with 16 dots'" 30 2641 2641 7.87891291229713 7.76853330092603 2365 799 "Expected"
"287" "s10" "26:35:44" "s10:t095" 95 "Crisp" "Matching" "LtoR" "Large" "'Choose a square with 44 dots'" 30 3774 3774 8.2358907259285 7.87891291229713 2641 713 "Near"
"288" "s10" "36:45:54" "s10:t096" 96 "Crisp" "Matching" "RtoL" "Small" "'Choose a square with 36 dots'" 30 1550 1550 7.34601020991329 8.2358907259285 3774 805 "Expected"
"289" "s10" "06:15:24" "s10:t097" 97 "Crisp" "Comparison" "LtoR" "Small" "'Choose a square with fewer than 20 dots'" 41 1304 1304 7.1731917424866 7.34601020991329 1550 1454 "Expected"
"290" "s10" "16:25:34" "s10:t098" 98 "Vague" "Matching" "LtoR" "Small" "'Choose a square with about 20 dots'" 36 2225 2225 7.70751219460034 7.1731917424866 1304 1056 "Expected"
"291" "s10" "26:35:44" "s10:t099" 99 "Vague" "Matching" "LtoR" "Large" "'Choose a square with about 40 dots'" 36 4483 4483 8.40804774415544 7.70751219460034 2225 1016 "Near"
"292" "s10" "36:45:54" "s10:t100" 100 "Vague" "Comparison" "LtoR" "Small" "'Choose a square with far fewer than 50 dots'" 45 5354 5354 8.5855992240803 8.40804774415544 4483 775 "Expected"
"293" "s10" "06:15:24" "s10:t101" 101 "Crisp" "Matching" "RtoL" "Large" "'Choose a square with 24 dots'" 30 5419 5419 8.59766657556611 8.5855992240803 5354 535 "Expected"
"294" "s10" "16:25:34" "s10:t102" 102 "Vague" "Comparison" "LtoR" "Large" "'Choose a square with far more than 20 dots'" 44 1890 1890 7.54433210805369 8.59766657556611 5419 2495 "Expected"
"295" "s10" "26:35:44" "s10:t103" 103 "Vague" "Comparison" "LtoR" "Small" "'Choose a square with far fewer than 40 dots'" 45 2985 2985 8.0013550258267 7.54433210805369 1890 4013 "Expected"
"296" "s10" "36:45:54" "s10:t104" 104 "Vague" "Matching" "RtoL" "Large" "'Choose a square with about 50 dots'" 36 2686 2686 7.89580837708318 8.0013550258267 2985 822 "Near"
"297" "s10" "06:15:24" "s10:t105" 105 "Vague" "Comparison" "LtoR" "Small" "'Choose a square with far fewer than 20 dots'" 45 1102 1102 7.00488198971286 7.89580837708318 2686 1244 "Expected"
"298" "s10" "16:25:34" "s10:t106" 106 "Vague" "Comparison" "LtoR" "Small" "'Choose a square with far fewer than 30 dots'" 45 4310 4310 8.36869318309779 7.00488198971286 1102 1502 "Expected"
"299" "s10" "26:35:44" "s10:t107" 107 "Crisp" "Comparison" "LtoR" "Small" "'Choose a square with fewer than 40 dots'" 41 3493 3493 8.15851624480683 8.36869318309779 4310 930 "Expected"
"300" "s10" "36:45:54" "s10:t108" 108 "Vague" "Matching" "LtoR" "Small" "'Choose a square with about 40 dots'" 36 1797 1797 7.49387388678356 8.15851624480683 3493 902 "Near"
"301" "s10" "06:15:24" "s10:t109" 109 "Vague" "Matching" "RtoL" "Small" "'Choose a square with about 10 dots'" 36 4066 4066 8.31041499418829 7.49387388678356 1797 1109 "Expected"
"302" "s10" "16:25:34" "s10:t110" 110 "Vague" "Comparison" "RtoL" "Small" "'Choose a square with far fewer than 30 dots'" 45 3014 3014 8.01102337918644 8.31041499418829 4066 1118 "Expected"
"303" "s10" "26:35:44" "s10:t111" 111 "Crisp" "Matching" "RtoL" "Small" "'Choose a square with 26 dots'" 30 6856 6856 8.83287946027762 8.01102337918644 3014 800 "Expected"
"304" "s10" "36:45:54" "s10:t112" 112 "Crisp" "Comparison" "LtoR" "Large" "'Choose a square with more than 40 dots'" 40 3886 3886 8.26513562993738 8.83287946027762 6856 863 "Expected"
"305" "s10" "06:15:24" "s10:t113" 113 "Crisp" "Comparison" "LtoR" "Large" "'Choose a square with more than 10 dots'" 40 3258 3258 8.08886878916199 8.26513562993738 3886 1297 "Expected"
"306" "s10" "16:25:34" "s10:t114" 114 "Crisp" "Comparison" "LtoR" "Small" "'Choose a square with fewer than 30 dots'" 41 2548 2548 7.84306401669205 8.08886878916199 3258 1019 "Expected"
"307" "s10" "26:35:44" "s10:t115" 115 "Crisp" "Matching" "LtoR" "Small" "'Choose a square with 26 dots'" 30 2566 2566 7.85010354517558 7.84306401669205 2548 912 "Expected"
"308" "s10" "36:45:54" "s10:t116" 116 "Vague" "Comparison" "LtoR" "Large" "'Choose a square with far more than 40 dots'" 44 2349 2349 7.76174498465891 7.85010354517558 2566 1608 "Expected"
"309" "s10" "06:15:24" "s10:t117" 117 "Vague" "Matching" "LtoR" "Large" "'Choose a square with about 20 dots'" 36 3939 3939 8.27868216297091 7.76174498465891 2349 760 "Near"
"310" "s10" "16:25:34" "s10:t118" 118 "Crisp" "Matching" "LtoR" "Large" "'Choose a square with 34 dots'" 30 3391 3391 8.12888014212564 8.27868216297091 3939 540 "Near"
"311" "s10" "26:35:44" "s10:t119" 119 "Crisp" "Comparison" "RtoL" "Large" "'Choose a square with more than 30 dots'" 40 2543 2543 7.84109976542212 8.12888014212564 3391 788 "Expected"
"312" "s10" "36:45:54" "s10:t120" 120 "Crisp" "Comparison" "RtoL" "Small" "'Choose a square with fewer than 50 dots'" 41 2174 2174 7.68432406768116 7.84109976542212 2543 1161 "Expected"
"313" "s10" "06:15:24" "s10:t121" 121 "Crisp" "Matching" "RtoL" "Small" "'Choose a square with 6 dots'" 29 2797 2797 7.93630269320196 7.68432406768116 2174 688 "Expected"
"314" "s10" "16:25:34" "s10:t122" 122 "Crisp" "Matching" "LtoR" "Small" "'Choose a square with 16 dots'" 30 5311 5311 8.5775354204224 7.93630269320196 2797 1343 "Expected"
"315" "s10" "26:35:44" "s10:t123" 123 "Vague" "Matching" "LtoR" "Small" "'Choose a square with about 30 dots'" 36 4725 4725 8.46062283992784 8.5775354204224 5311 805 "Expected"
"316" "s10" "36:45:54" "s10:t124" 124 "Crisp" "Comparison" "LtoR" "Small" "'Choose a square with fewer than 50 dots'" 41 5805 5805 8.66647489413199 8.46062283992784 4725 970 "Expected"
"317" "s10" "06:15:24" "s10:t125" 125 "Crisp" "Comparison" "RtoL" "Large" "'Choose a square with more than 10 dots'" 40 1824 1824 7.50878717063428 8.66647489413199 5805 850 "Expected"
"318" "s10" "16:25:34" "s10:t126" 126 "Vague" "Matching" "RtoL" "Small" "'Choose a square with about 20 dots'" 36 3294 3294 8.09985791073758 7.50878717063428 1824 1310 "Expected"
"319" "s10" "26:35:44" "s10:t127" 127 "Vague" "Comparison" "RtoL" "Large" "'Choose a square with far more than 30 dots'" 44 4309 4309 8.36846113761584 8.09985791073758 3294 1094 "Expected"
"320" "s10" "36:45:54" "s10:t128" 128 "Vague" "Matching" "LtoR" "Large" "'Choose a square with about 50 dots'" 36 3424 3424 8.13856473726163 8.36846113761584 4309 889 "Near"
"321" "s10" "06:15:24" "s10:t129" 129 "Crisp" "Matching" "RtoL" "Small" "'Choose a square with 6 dots'" 29 1429 1429 7.26473017792987 8.13856473726163 3424 1567 "Expected"
"322" "s10" "16:25:34" "s10:t130" 130 "Vague" "Matching" "LtoR" "Small" "'Choose a square with about 20 dots'" 36 2361 2361 7.76684053708551 7.26473017792987 1429 3232 "Expected"
"323" "s10" "26:35:44" "s10:t131" 131 "Vague" "Matching" "RtoL" "Large" "'Choose a square with about 40 dots'" 36 2503 2503 7.82524529143177 7.76684053708551 2361 1669 "Far"
"324" "s10" "36:45:54" "s10:t132" 132 "Crisp" "Comparison" "RtoL" "Large" "'Choose a square with more than 40 dots'" 40 1661 1661 7.41517510961329 7.82524529143177 2503 1931 "Expected"
"325" "s10" "06:15:24" "s10:t133" 133 "Crisp" "Comparison" "RtoL" "Small" "'Choose a square with fewer than 20 dots'" 41 1777 1777 7.48268182815465 7.41517510961329 1661 1713 "Expected"
"326" "s10" "16:25:34" "s10:t134" 134 "Crisp" "Comparison" "LtoR" "Large" "'Choose a square with more than 20 dots'" 40 2007 2007 7.60439634879634 7.48268182815465 1777 1121 "Expected"
"327" "s10" "26:35:44" "s10:t135" 135 "Vague" "Matching" "RtoL" "Small" "'Choose a square with about 30 dots'" 36 1804 1804 7.49776170062257 7.60439634879634 2007 1757 "Expected"
"328" "s10" "36:45:54" "s10:t136" 136 "Vague" "Comparison" "RtoL" "Large" "'Choose a square with far more than 40 dots'" 44 1884 1884 7.54115245513631 7.49776170062257 1804 2138 "Expected"
"329" "s10" "06:15:24" "s10:t137" 137 "Vague" "Comparison" "LtoR" "Large" "'Choose a square with far more than 10 dots'" 44 1437 1437 7.27031288607902 7.54115245513631 1884 2703 "Expected"
"330" "s10" "16:25:34" "s10:t138" 138 "Crisp" "Matching" "LtoR" "Small" "'Choose a square with 16 dots'" 30 8359 8359 9.03109408169916 7.27031288607902 1437 1083 "Expected"
"331" "s10" "26:35:44" "s10:t139" 139 "Vague" "Comparison" "RtoL" "Small" "'Choose a square with far fewer than 40 dots'" 45 3787 3787 8.2393294279018 9.03109408169916 8359 1215 "Near"
"332" "s10" "36:45:54" "s10:t140" 140 "Vague" "Comparison" "RtoL" "Small" "'Choose a square with far fewer than 50 dots'" 45 4717 4717 8.45892828328426 8.2393294279018 3787 713 "Expected"
"333" "s10" "06:15:24" "s10:t141" 141 "Vague" "Comparison" "LtoR" "Small" "'Choose a square with far fewer than 20 dots'" 45 1534 1534 7.3356339819272 8.45892828328426 4717 747 "Expected"
"334" "s10" "16:25:34" "s10:t142" 142 "Vague" "Matching" "LtoR" "Large" "'Choose a square with about 30 dots'" 36 3681 3681 8.21093973337902 7.3356339819272 1534 1423 "Near"
"335" "s10" "26:35:44" "s10:t143" 143 "Crisp" "Matching" "LtoR" "Large" "'Choose a square with 44 dots'" 30 10253 10253 9.23532562467009 8.21093973337902 3681 803 "Near"
"336" "s10" "36:45:54" "s10:t144" 144 "Vague" "Matching" "LtoR" "Large" "'Choose a square with about 50 dots'" 36 3272 3272 8.09315669772264 9.23532562467009 10253 1281 "Expected"
"337" "s10" "06:15:24" "s10:t145" 145 "Vague" "Comparison" "RtoL" "Large" "'Choose a square with far more than 10 dots'" 44 1267 1267 7.14440718032114 8.09315669772264 3272 1465 "Expected"
"338" "s10" "16:25:34" "s10:t146" 146 "Vague" "Comparison" "RtoL" "Small" "'Choose a square with far fewer than 30 dots'" 45 4533 4533 8.41913925094085 7.14440718032114 1267 1294 "Expected"
"339" "s10" "26:35:44" "s10:t147" 147 "Vague" "Comparison" "RtoL" "Large" "'Choose a square with far more than 30 dots'" 44 1349 1349 7.20711885620776 8.41913925094085 4533 1376 "Expected"
"340" "s10" "36:45:54" "s10:t148" 148 "Vague" "Comparison" "LtoR" "Large" "'Choose a square with far more than 40 dots'" 44 1864 1864 7.53047999524554 7.20711885620776 1349 1428 "Expected"
"341" "s10" "06:15:24" "s10:t149" 149 "Crisp" "Matching" "RtoL" "Large" "'Choose a square with 24 dots'" 30 5780 5780 8.66215896166642 7.53047999524554 1864 1299 "Expected"
"342" "s10" "16:25:34" "s10:t150" 150 "Vague" "Matching" "RtoL" "Small" "'Choose a square with about 20 dots'" 36 5115 5115 8.53993267838573 8.66215896166642 5780 1265 "Expected"
"343" "s10" "26:35:44" "s10:t151" 151 "Crisp" "Comparison" "LtoR" "Large" "'Choose a square with more than 30 dots'" 40 2570 2570 7.85166117788927 8.53993267838573 5115 1240 "Expected"
"344" "s10" "36:45:54" "s10:t152" 152 "Vague" "Matching" "LtoR" "Small" "'Choose a square with about 40 dots'" 36 6017 6017 8.70234407522035 7.85166117788927 2570 1596 "Expected"
"345" "s10" "06:15:24" "s10:t153" 153 "Crisp" "Matching" "LtoR" "Large" "'Choose a square with 24 dots'" 30 5538 5538 8.61938870373091 8.70234407522035 6017 1240 "Expected"
"346" "s10" "16:25:34" "s10:t154" 154 "Crisp" "Comparison" "LtoR" "Small" "'Choose a square with fewer than 30 dots'" 41 3388 3388 8.12799505577195 8.61938870373091 5538 911 "Expected"
"347" "s10" "26:35:44" "s10:t155" 155 "Vague" "Comparison" "LtoR" "Large" "'Choose a square with far more than 30 dots'" 44 2213 2213 7.70210434005105 8.12799505577195 3388 976 "Expected"
"348" "s10" "36:45:54" "s10:t156" 156 "Vague" "Matching" "RtoL" "Large" "'Choose a square with about 50 dots'" 36 4035 4035 8.30276158070405 7.70210434005105 2213 1116 "Expected"
"349" "s10" "06:15:24" "s10:t157" 157 "Vague" "Comparison" "RtoL" "Small" "'Choose a square with far fewer than 20 dots'" 45 1306 1306 7.17472430983638 8.30276158070405 4035 1248 "Expected"
"350" "s10" "16:25:34" "s10:t158" 158 "Vague" "Comparison" "LtoR" "Large" "'Choose a square with far more than 20 dots'" 44 1300 1300 7.17011954344963 7.17472430983638 1306 1898 "Expected"
"351" "s10" "26:35:44" "s10:t159" 159 "Crisp" "Comparison" "LtoR" "Small" "'Choose a square with fewer than 40 dots'" 41 5455 5455 8.60428789826717 7.17011954344963 1300 2549 "Expected"
"352" "s10" "36:45:54" "s10:t160" 160 "Crisp" "Matching" "LtoR" "Large" "'Choose a square with 54 dots'" 30 3306 3306 8.10349427838097 8.60428789826717 5455 1241 "Expected"
"353" "s10" "06:15:24" "s10:t161" 161 "Crisp" "Matching" "LtoR" "Small" "'Choose a square with 6 dots'" 29 1331 1331 7.19368581839511 8.10349427838097 3306 810 "Expected"
"354" "s10" "16:25:34" "s10:t162" 162 "Crisp" "Comparison" "RtoL" "Large" "'Choose a square with more than 20 dots'" 40 1207 1207 7.09589322109753 7.19368581839511 1331 1172 "Expected"
"355" "s10" "26:35:44" "s10:t163" 163 "Crisp" "Comparison" "RtoL" "Large" "'Choose a square with more than 30 dots'" 40 1422 1422 7.25981961036319 7.09589322109753 1207 1427 "Expected"
"356" "s10" "36:45:54" "s10:t164" 164 "Crisp" "Matching" "RtoL" "Large" "'Choose a square with 54 dots'" 30 5120 5120 8.54090971803355 7.25981961036319 1422 1138 "Expected"
"357" "s10" "06:15:24" "s10:t165" 165 "Vague" "Matching" "RtoL" "Large" "'Choose a square with about 20 dots'" 36 21566 21566 9.97887327944202 8.54090971803355 5120 1085 "Near"
"358" "s10" "16:25:34" "s10:t166" 166 "Crisp" "Comparison" "RtoL" "Small" "'Choose a square with fewer than 30 dots'" 41 4773 4773 8.4707303170059 9.97887327944202 21566 1059 "Expected"
"359" "s10" "26:35:44" "s10:t167" 167 "Crisp" "Matching" "LtoR" "Small" "'Choose a square with 26 dots'" 30 8334 8334 9.0280988119824 8.4707303170059 4773 1950 "Expected"
"360" "s10" "36:45:54" "s10:t168" 168 "Crisp" "Comparison" "LtoR" "Small" "'Choose a square with fewer than 50 dots'" 41 3338 3338 8.11312710422178 9.0280988119824 8334 783 "Expected"
"361" "s10" "06:15:24" "s10:t169" 169 "Vague" "Matching" "RtoL" "Small" "'Choose a square with about 10 dots'" 36 16048 16048 9.68333951020172 8.11312710422178 3338 1057 "Near"
"362" "s10" "16:25:34" "s10:t170" 170 "Crisp" "Matching" "RtoL" "Large" "'Choose a square with 34 dots'" 30 8697 8697 9.07073341758977 9.68333951020172 16048 1919 "Near"
"363" "s10" "26:35:44" "s10:t171" 171 "Crisp" "Comparison" "RtoL" "Small" "'Choose a square with fewer than 40 dots'" 41 1751 1751 7.46794233228585 9.07073341758977 8697 1059 "Expected"
"364" "s10" "36:45:54" "s10:t172" 172 "Crisp" "Comparison" "LtoR" "Large" "'Choose a square with more than 40 dots'" 40 2482 2482 7.81681996576455 7.46794233228585 1751 1572 "Expected"
"365" "s10" "06:15:24" "s10:t173" 173 "Vague" "Matching" "LtoR" "Large" "'Choose a square with about 20 dots'" 36 10929 10929 9.29917508567667 7.81681996576455 2482 2807 "Expected"
"366" "s10" "16:25:34" "s10:t174" 174 "Crisp" "Matching" "RtoL" "Small" "'Choose a square with 16 dots'" 30 6228 6228 8.73681053295389 9.29917508567667 10929 843 "Expected"
"367" "s10" "26:35:44" "s10:t175" 175 "Vague" "Comparison" "LtoR" "Small" "'Choose a square with far fewer than 40 dots'" 45 1593 1593 7.37337430991005 8.73681053295389 6228 1281 "Expected"
"368" "s10" "36:45:54" "s10:t176" 176 "Crisp" "Comparison" "RtoL" "Small" "'Choose a square with fewer than 50 dots'" 41 1691 1691 7.43307534889858 7.37337430991005 1593 1415 "Expected"
"369" "s10" "06:15:24" "s10:t177" 177 "Crisp" "Comparison" "LtoR" "Large" "'Choose a square with more than 10 dots'" 40 1553 1553 7.34794382314869 7.43307534889858 1691 1413 "Expected"
"370" "s10" "16:25:34" "s10:t178" 178 "Vague" "Comparison" "LtoR" "Small" "'Choose a square with far fewer than 30 dots'" 45 2495 2495 7.82204400818562 7.34794382314869 1553 1800 "Expected"
"371" "s10" "26:35:44" "s10:t179" 179 "Crisp" "Matching" "RtoL" "Small" "'Choose a square with 26 dots'" 30 7969 7969 8.98331429339775 7.82204400818562 2495 2667 "Expected"
"372" "s10" "36:45:54" "s10:t180" 180 "Vague" "Comparison" "LtoR" "Small" "'Choose a square with far fewer than 50 dots'" 45 2359 2359 7.76599307940768 8.98331429339775 7969 2367 "Expected"
"373" "s10" "06:15:24" "s10:t181" 181 "Vague" "Matching" "LtoR" "Small" "'Choose a square with about 10 dots'" 36 6872 6872 8.83521046366409 7.76599307940768 2359 905 "Expected"
"374" "s10" "16:25:34" "s10:t182" 182 "Vague" "Matching" "RtoL" "Large" "'Choose a square with about 30 dots'" 36 3449 3449 8.14583961293684 8.83521046366409 6872 1189 "Near"
"375" "s10" "26:35:44" "s10:t183" 183 "Vague" "Matching" "LtoR" "Small" "'Choose a square with about 30 dots'" 36 2438 2438 7.79893331004122 8.14583961293684 3449 2747 "Expected"
"376" "s10" "36:45:54" "s10:t184" 184 "Crisp" "Matching" "RtoL" "Small" "'Choose a square with 36 dots'" 30 5766 5766 8.65973387819835 7.79893331004122 2438 1038 "Near"
"377" "s10" "06:15:24" "s10:t185" 185 "Crisp" "Comparison" "LtoR" "Small" "'Choose a square with fewer than 20 dots'" 41 1254 1254 7.13409372119287 8.65973387819835 5766 1036 "Expected"
"378" "s10" "16:25:34" "s10:t186" 186 "Crisp" "Matching" "LtoR" "Large" "'Choose a square with 34 dots'" 30 8446 8446 9.04144823549389 7.13409372119287 1254 1120 "Near"
"379" "s10" "26:35:44" "s10:t187" 187 "Crisp" "Matching" "RtoL" "Large" "'Choose a square with 44 dots'" 30 7942 7942 8.9799204116912 9.04144823549389 8446 2530 "Expected"
"380" "s10" "36:45:54" "s10:t188" 188 "Crisp" "Matching" "LtoR" "Small" "'Choose a square with 36 dots'" 30 3541 3541 8.1721644521119 8.9799204116912 7942 1021 "Near"
"381" "s10" "06:15:24" "s10:t189" 189 "Crisp" "Comparison" "RtoL" "Large" "'Choose a square with more than 10 dots'" 40 3080 3080 8.03268487596762 8.1721644521119 3541 2309 "Expected"
"382" "s10" "16:25:34" "s10:t190" 190 "Vague" "Comparison" "RtoL" "Large" "'Choose a square with far more than 20 dots'" 44 1376 1376 7.22693601849329 8.03268487596762 3080 2400 "Expected"
"383" "s10" "26:35:44" "s10:t191" 191 "Vague" "Matching" "LtoR" "Large" "'Choose a square with about 40 dots'" 36 2567 2567 7.85049318087114 7.22693601849329 1376 2573 "Expected"
"384" "s10" "36:45:54" "s10:t192" 192 "Vague" "Matching" "RtoL" "Small" "'Choose a square with about 40 dots'" 36 4723 4723 8.46019946989612 7.85049318087114 2567 2145 "Near"
"385" "s11" "06:15:24" "s11:t001" 1 "Crisp" "Comparison" "RtoL" "Large" "'Choose a square with more than 10 dots'" 40 2741 2741 7.91607809630279 8.46019946989612 4723 6025 "Expected"
"386" "s11" "16:25:34" "s11:t002" 2 "Crisp" "Comparison" "LtoR" "Small" "'Choose a square with fewer than 30 dots'" 41 2708 2708 7.90396563403217 7.91607809630279 2741 3169 "Expected"
"387" "s11" "26:35:44" "s11:t003" 3 "Vague" "Matching" "LtoR" "Small" "'Choose a square with about 30 dots'" 36 2430 2430 7.79564653633459 7.90396563403217 2708 2778 "Expected"
"388" "s11" "36:45:54" "s11:t004" 4 "Vague" "Matching" "RtoL" "Small" "'Choose a square with about 40 dots'" 36 2246 2246 7.71690613529839 7.79564653633459 2430 2371 "Expected"
"389" "s11" "06:15:24" "s11:t005" 5 "Crisp" "Comparison" "RtoL" "Small" "'Choose a square with fewer than 20 dots'" 41 1635 1635 7.39939808333135 7.71690613529839 2246 2644 "Expected"
"390" "s11" "16:25:34" "s11:t006" 6 "Crisp" "Comparison" "RtoL" "Small" "'Choose a square with fewer than 30 dots'" 41 1617 1617 7.38832785957711 7.39939808333135 1635 3191 "Expected"
"391" "s11" "26:35:44" "s11:t007" 7 "Vague" "Comparison" "RtoL" "Large" "'Choose a square with far more than 30 dots'" 44 1719 1719 7.44949800538285 7.38832785957711 1617 3055 "Expected"
"392" "s11" "36:45:54" "s11:t008" 8 "Vague" "Matching" "LtoR" "Small" "'Choose a square with about 40 dots'" 36 1889 1889 7.54380286750151 7.44949800538285 1719 2369 "Expected"
"393" "s11" "06:15:24" "s11:t009" 9 "Vague" "Comparison" "RtoL" "Small" "'Choose a square with far fewer than 20 dots'" 45 1416 1416 7.25559127425367 7.54380286750151 1889 3173 "Expected"
"394" "s11" "16:25:34" "s11:t010" 10 "Crisp" "Matching" "RtoL" "Small" "'Choose a square with 16 dots'" 30 1487 1487 7.30451594646016 7.25559127425367 1416 2989 "Expected"
"395" "s11" "26:35:44" "s11:t011" 11 "Crisp" "Matching" "LtoR" "Large" "'Choose a square with 44 dots'" 30 1984 1984 7.59287028784482 7.30451594646016 1487 2649 "Far"
"396" "s11" "36:45:54" "s11:t012" 12 "Crisp" "Matching" "LtoR" "Large" "'Choose a square with 54 dots'" 30 6766 6766 8.81966534934065 7.59287028784482 1984 2631 "Near"
"397" "s11" "06:15:24" "s11:t013" 13 "Crisp" "Comparison" "LtoR" "Small" "'Choose a square with fewer than 20 dots'" 41 3247 3247 8.08548677210285 8.81966534934065 6766 2400 "Expected"
"398" "s11" "16:25:34" "s11:t014" 14 "Crisp" "Matching" "RtoL" "Large" "'Choose a square with 34 dots'" 30 2472 2472 7.81278281857758 8.08548677210285 3247 2402 "Near"
"399" "s11" "26:35:44" "s11:t015" 15 "Crisp" "Matching" "LtoR" "Small" "'Choose a square with 26 dots'" 30 8543 8543 9.05286751315162 7.81278281857758 2472 1918 "Expected"
"400" "s11" "36:45:54" "s11:t016" 16 "Crisp" "Matching" "RtoL" "Large" "'Choose a square with 54 dots'" 30 2593 2593 7.86057078553866 9.05286751315162 8543 1923 "Far"
"401" "s11" "06:15:24" "s11:t017" 17 "Vague" "Comparison" "LtoR" "Small" "'Choose a square with far fewer than 20 dots'" 45 2963 2963 7.99395754757357 7.86057078553866 2593 3042 "Expected"
"402" "s11" "16:25:34" "s11:t018" 18 "Vague" "Comparison" "RtoL" "Large" "'Choose a square with far more than 20 dots'" 44 2754 2754 7.9208096792886 7.99395754757357 2963 2311 "Expected"
"403" "s11" "26:35:44" "s11:t019" 19 "Crisp" "Comparison" "LtoR" "Small" "'Choose a square with fewer than 40 dots'" 41 1793 1793 7.49164547360513 7.9208096792886 2754 2094 "Expected"
"404" "s11" "36:45:54" "s11:t020" 20 "Crisp" "Comparison" "LtoR" "Large" "'Choose a square with more than 40 dots'" 40 4543 4543 8.4213428657594 7.49164547360513 1793 3280 "Expected"
"405" "s11" "06:15:24" "s11:t021" 21 "Vague" "Comparison" "LtoR" "Large" "'Choose a square with far more than 10 dots'" 44 1621 1621 7.39079852173568 8.4213428657594 4543 2738 "Expected"
"406" "s11" "16:25:34" "s11:t022" 22 "Crisp" "Matching" "LtoR" "Small" "'Choose a square with 16 dots'" 30 2265 2265 7.72533003791713 7.39079852173568 1621 1754 "Expected"
"407" "s11" "26:35:44" "s11:t023" 23 "Crisp" "Comparison" "LtoR" "Large" "'Choose a square with more than 30 dots'" 40 3045 3045 8.021256180144 7.72533003791713 2265 2214 "Expected"
"408" "s11" "36:45:54" "s11:t024" 24 "Crisp" "Matching" "RtoL" "Small" "'Choose a square with 36 dots'" 30 1731 1731 7.45645455517621 8.021256180144 3045 2062 "Expected"
"409" "s11" "06:15:24" "s11:t025" 25 "Crisp" "Matching" "RtoL" "Small" "'Choose a square with 6 dots'" 29 1797 1797 7.49387388678356 7.45645455517621 1731 2380 "Expected"
"410" "s11" "16:25:34" "s11:t026" 26 "Vague" "Matching" "LtoR" "Large" "'Choose a square with about 30 dots'" 36 3401 3401 8.1318247850072 7.49387388678356 1797 2483 "Near"
"411" "s11" "26:35:44" "s11:t027" 27 "Vague" "Matching" "RtoL" "Small" "'Choose a square with about 30 dots'" 36 1728 1728 7.454719949364 8.1318247850072 3401 2717 "Expected"
"412" "s11" "36:45:54" "s11:t028" 28 "Crisp" "Comparison" "LtoR" "Small" "'Choose a square with fewer than 50 dots'" 41 2076 2076 7.63819824428578 7.454719949364 1728 2306 "Expected"
"413" "s11" "06:15:24" "s11:t029" 29 "Vague" "Matching" "RtoL" "Small" "'Choose a square with about 10 dots'" 36 3202 3202 8.07153089355666 7.63819824428578 2076 2138 "Expected"
"414" "s11" "16:25:34" "s11:t030" 30 "Vague" "Comparison" "RtoL" "Small" "'Choose a square with far fewer than 30 dots'" 45 1334 1334 7.19593722647557 8.07153089355666 3202 2821 "Expected"
"415" "s11" "26:35:44" "s11:t031" 31 "Crisp" "Comparison" "RtoL" "Small" "'Choose a square with fewer than 40 dots'" 41 1710 1710 7.44424864949671 7.19593722647557 1334 4814 "Expected"
"416" "s11" "36:45:54" "s11:t032" 32 "Vague" "Comparison" "RtoL" "Large" "'Choose a square with far more than 40 dots'" 44 1473 1473 7.29505641646263 7.44424864949671 1710 2550 "Expected"
"417" "s11" "06:15:24" "s11:t033" 33 "Crisp" "Comparison" "LtoR" "Large" "'Choose a square with more than 10 dots'" 40 2178 2178 7.68616230349291 7.29505641646263 1473 1979 "Expected"
"418" "s11" "16:25:34" "s11:t034" 34 "Vague" "Matching" "LtoR" "Small" "'Choose a square with about 20 dots'" 36 2142 2142 7.66949525100769 7.68616230349291 2178 1444 "Expected"
"419" "s11" "26:35:44" "s11:t035" 35 "Vague" "Comparison" "LtoR" "Large" "'Choose a square with far more than 30 dots'" 44 2954 2954 7.99091546309133 7.66949525100769 2142 2344 "Expected"
"420" "s11" "36:45:54" "s11:t036" 36 "Vague" "Comparison" "LtoR" "Small" "'Choose a square with far fewer than 50 dots'" 45 2977 2977 7.99867136101578 7.99091546309133 2954 2326 "Expected"
"421" "s11" "06:15:24" "s11:t037" 37 "Vague" "Matching" "LtoR" "Large" "'Choose a square with about 20 dots'" 36 2432 2432 7.79646924308606 7.99867136101578 2977 2525 "Near"
"422" "s11" "16:25:34" "s11:t038" 38 "Vague" "Comparison" "LtoR" "Large" "'Choose a square with far more than 20 dots'" 44 1540 1540 7.33953769540767 7.79646924308606 2432 2048 "Expected"
"423" "s11" "26:35:44" "s11:t039" 39 "Vague" "Comparison" "LtoR" "Small" "'Choose a square with far fewer than 40 dots'" 45 3482 3482 8.15536212032814 7.33953769540767 1540 3332 "Expected"
"424" "s11" "36:45:54" "s11:t040" 40 "Vague" "Matching" "LtoR" "Large" "'Choose a square with about 50 dots'" 36 3564 3564 8.1786387885907 8.15536212032814 3482 3891 "Expected"
"425" "s11" "06:15:24" "s11:t041" 41 "Vague" "Matching" "LtoR" "Small" "'Choose a square with about 10 dots'" 36 3162 3162 8.05896001776942 8.1786387885907 3564 2387 "Expected"
"426" "s11" "16:25:34" "s11:t042" 42 "Vague" "Comparison" "LtoR" "Small" "'Choose a square with far fewer than 30 dots'" 45 2461 2461 7.80832305039106 8.05896001776942 3162 2463 "Expected"
"427" "s11" "26:35:44" "s11:t043" 43 "Crisp" "Matching" "RtoL" "Small" "'Choose a square with 26 dots'" 30 2509 2509 7.82763954636642 7.80832305039106 2461 2147 "Expected"
"428" "s11" "36:45:54" "s11:t044" 44 "Vague" "Matching" "RtoL" "Large" "'Choose a square with about 50 dots'" 36 2337 2337 7.75662333453886 7.82763954636642 2509 1530 "Near"
"429" "s11" "06:15:24" "s11:t045" 45 "Crisp" "Matching" "RtoL" "Large" "'Choose a square with 24 dots'" 30 3662 3662 8.20576472523446 7.75662333453886 2337 2084 "Near"
"430" "s11" "16:25:34" "s11:t046" 46 "Vague" "Matching" "RtoL" "Large" "'Choose a square with about 30 dots'" 36 7412 7412 8.91085558740525 8.20576472523446 3662 1426 "Expected"
"431" "s11" "26:35:44" "s11:t047" 47 "Crisp" "Matching" "RtoL" "Large" "'Choose a square with 44 dots'" 30 4264 4264 8.35796296584568 8.91085558740525 7412 1478 "Expected"
"432" "s11" "36:45:54" "s11:t048" 48 "Crisp" "Matching" "LtoR" "Small" "'Choose a square with 36 dots'" 30 1925 1925 7.56268124672188 8.35796296584568 4264 1268 "Expected"
"433" "s11" "06:15:24" "s11:t049" 49 "Vague" "Comparison" "RtoL" "Large" "'Choose a square with far more than 10 dots'" 44 2303 2303 7.74196789982069 7.56268124672188 1925 2871 "Expected"
"434" "s11" "16:25:34" "s11:t050" 50 "Crisp" "Matching" "LtoR" "Large" "'Choose a square with 34 dots'" 30 2759 2759 7.92262357421729 7.74196789982069 2303 1370 "Expected"
"435" "s11" "26:35:44" "s11:t051" 51 "Vague" "Matching" "RtoL" "Large" "'Choose a square with about 40 dots'" 36 4751 4751 8.46611040118692 7.92262357421729 2759 1651 "Near"
"436" "s11" "36:45:54" "s11:t052" 52 "Crisp" "Comparison" "RtoL" "Small" "'Choose a square with fewer than 50 dots'" 41 1407 1407 7.24921505711439 8.46611040118692 4751 2881 "Expected"
"437" "s11" "06:15:24" "s11:t053" 53 "Crisp" "Matching" "LtoR" "Small" "'Choose a square with 6 dots'" 29 2309 2309 7.7445698093545 7.24921505711439 1407 2348 "Expected"
"438" "s11" "16:25:34" "s11:t054" 54 "Crisp" "Comparison" "RtoL" "Large" "'Choose a square with more than 20 dots'" 40 1926 1926 7.56320059235807 7.7445698093545 2309 2024 "Expected"
"439" "s11" "26:35:44" "s11:t055" 55 "Vague" "Matching" "LtoR" "Large" "'Choose a square with about 40 dots'" 36 7831 7831 8.96584549475094 7.56320059235807 1926 1761 "Expected"
"440" "s11" "36:45:54" "s11:t056" 56 "Vague" "Comparison" "RtoL" "Small" "'Choose a square with far fewer than 50 dots'" 45 2844 2844 7.95296679092313 8.96584549475094 7831 2090 "Expected"
"441" "s11" "06:15:24" "s11:t057" 57 "Crisp" "Matching" "LtoR" "Large" "'Choose a square with 24 dots'" 30 4836 4836 8.48384321173468 7.95296679092313 2844 1541 "Expected"
"442" "s11" "16:25:34" "s11:t058" 58 "Vague" "Matching" "RtoL" "Small" "'Choose a square with about 20 dots'" 36 4955 4955 8.50815244676409 8.48384321173468 4836 1332 "Near"
"443" "s11" "26:35:44" "s11:t059" 59 "Vague" "Comparison" "RtoL" "Small" "'Choose a square with far fewer than 40 dots'" 45 1694 1694 7.434847875212 8.50815244676409 4955 2182 "Expected"
"444" "s11" "36:45:54" "s11:t060" 60 "Crisp" "Comparison" "RtoL" "Large" "'Choose a square with more than 40 dots'" 40 3519 3519 8.16593213732158 7.434847875212 1694 672 "Expected"
"445" "s11" "06:15:24" "s11:t061" 61 "Vague" "Matching" "RtoL" "Large" "'Choose a square with about 20 dots'" 36 5311 5311 8.5775354204224 8.16593213732158 3519 2175 "Expected"
"446" "s11" "16:25:34" "s11:t062" 62 "Crisp" "Comparison" "LtoR" "Large" "'Choose a square with more than 20 dots'" 40 2270 2270 7.72753511047545 8.5775354204224 5311 1502 "Expected"
"447" "s11" "26:35:44" "s11:t063" 63 "Crisp" "Comparison" "RtoL" "Large" "'Choose a square with more than 30 dots'" 40 1404 1404 7.24708058458576 7.72753511047545 2270 3026 "Expected"
"448" "s11" "36:45:54" "s11:t064" 64 "Vague" "Comparison" "LtoR" "Large" "'Choose a square with far more than 40 dots'" 44 2484 2484 7.81762544305337 7.24708058458576 1404 2320 "Expected"
"449" "s11" "06:15:24" "s11:t065" 65 "Crisp" "Matching" "RtoL" "Small" "'Choose a square with 6 dots'" 29 2768 2768 7.92588031673756 7.81762544305337 2484 7731 "Expected"
"450" "s11" "16:25:34" "s11:t066" 66 "Vague" "Comparison" "LtoR" "Large" "'Choose a square with far more than 20 dots'" 44 2192 2192 7.69256964806791 7.92588031673756 2768 2915 "Expected"
"451" "s11" "26:35:44" "s11:t067" 67 "Crisp" "Matching" "RtoL" "Small" "'Choose a square with 26 dots'" 30 1942 1942 7.57147364885127 7.69256964806791 2192 1802 "Near"
"452" "s11" "36:45:54" "s11:t068" 68 "Crisp" "Matching" "RtoL" "Small" "'Choose a square with 36 dots'" 30 2922 2922 7.98002359231065 7.57147364885127 1942 1662 "Near"
"453" "s11" "06:15:24" "s11:t069" 69 "Vague" "Matching" "LtoR" "Small" "'Choose a square with about 10 dots'" 36 2930 2930 7.98275770201111 7.98002359231065 2922 2351 "Expected"
"454" "s11" "16:25:34" "s11:t070" 70 "Vague" "Comparison" "LtoR" "Small" "'Choose a square with far fewer than 30 dots'" 45 1640 1640 7.40245152081824 7.98275770201111 2930 3463 "Expected"
"455" "s11" "26:35:44" "s11:t071" 71 "Crisp" "Comparison" "LtoR" "Large" "'Choose a square with more than 30 dots'" 40 2008 2008 7.60489448081162 7.40245152081824 1640 1387 "Expected"
"456" "s11" "36:45:54" "s11:t072" 72 "Crisp" "Matching" "LtoR" "Large" "'Choose a square with 54 dots'" 30 4250 4250 8.35467426191846 7.60489448081162 2008 1638 "Near"
"457" "s11" "06:15:24" "s11:t073" 73 "Crisp" "Comparison" "RtoL" "Small" "'Choose a square with fewer than 20 dots'" 41 1711 1711 7.44483327389219 8.35467426191846 4250 2159 "Expected"
"458" "s11" "16:25:34" "s11:t074" 74 "Vague" "Matching" "LtoR" "Small" "'Choose a square with about 20 dots'" 36 5808 5808 8.66699155650463 7.44483327389219 1711 2889 "Near"
"459" "s11" "26:35:44" "s11:t075" 75 "Vague" "Comparison" "LtoR" "Small" "'Choose a square with far fewer than 40 dots'" 45 2299 2299 7.74022952476318 8.66699155650463 5808 2643 "Expected"
"460" "s11" "36:45:54" "s11:t076" 76 "Crisp" "Comparison" "RtoL" "Large" "'Choose a square with more than 40 dots'" 40 1286 1286 7.15929190479756 7.74022952476318 2299 1112 "Expected"
"461" "s11" "06:15:24" "s11:t077" 77 "Crisp" "Comparison" "LtoR" "Large" "'Choose a square with more than 10 dots'" 40 2285 2285 7.7341213033283 7.15929190479756 1286 2215 "Expected"
"462" "s11" "16:25:34" "s11:t078" 78 "Crisp" "Matching" "LtoR" "Large" "'Choose a square with 34 dots'" 30 1790 1790 7.4899708988348 7.7341213033283 2285 1650 "Near"
"463" "s11" "26:35:44" "s11:t079" 79 "Crisp" "Matching" "RtoL" "Large" "'Choose a square with 44 dots'" 30 3049 3049 8.02256894698825 7.4899708988348 1790 932 "Expected"
"464" "s11" "36:45:54" "s11:t080" 80 "Vague" "Matching" "LtoR" "Large" "'Choose a square with about 50 dots'" 36 4877 4877 8.49228555571005 8.02256894698825 3049 1234 "Near"
"465" "s11" "06:15:24" "s11:t081" 81 "Vague" "Matching" "LtoR" "Large" "'Choose a square with about 20 dots'" 36 3342 3342 8.11432470915534 8.49228555571005 4877 2314 "Near"
"466" "s11" "16:25:34" "s11:t082" 82 "Crisp" "Comparison" "RtoL" "Large" "'Choose a square with more than 20 dots'" 40 2135 2135 7.66622192566273 8.11432470915534 3342 2300 "Expected"
"467" "s11" "26:35:44" "s11:t083" 83 "Crisp" "Comparison" "RtoL" "Large" "'Choose a square with more than 30 dots'" 40 2650 2650 7.88231491898027 7.66622192566273 2135 1297 "Expected"
"468" "s11" "36:45:54" "s11:t084" 84 "Vague" "Comparison" "LtoR" "Large" "'Choose a square with far more than 40 dots'" 44 3509 3509 8.16308637558322 7.88231491898027 2650 1393 "Expected"
"469" "s11" "06:15:24" "s11:t085" 85 "Crisp" "Comparison" "RtoL" "Large" "'Choose a square with more than 10 dots'" 40 3066 3066 8.02812905943176 8.16308637558322 3509 1430 "Expected"
"470" "s11" "16:25:34" "s11:t086" 86 "Crisp" "Comparison" "LtoR" "Small" "'Choose a square with fewer than 30 dots'" 41 1794 1794 7.49220304261874 8.02812905943176 3066 1489 "Expected"
"471" "s11" "26:35:44" "s11:t087" 87 "Crisp" "Comparison" "LtoR" "Small" "'Choose a square with fewer than 40 dots'" 41 2317 2317 7.74802852443238 7.49220304261874 1794 1434 "Expected"
"472" "s11" "36:45:54" "s11:t088" 88 "Crisp" "Matching" "RtoL" "Large" "'Choose a square with 54 dots'" 30 4539 4539 8.42046200245647 7.74802852443238 2317 1408 "Near"
"473" "s11" "06:15:24" "s11:t089" 89 "Crisp" "Matching" "LtoR" "Large" "'Choose a square with 24 dots'" 30 4645 4645 8.44354665124794 8.42046200245647 4539 1111 "Expected"
"474" "s11" "16:25:34" "s11:t090" 90 "Vague" "Matching" "RtoL" "Large" "'Choose a square with about 30 dots'" 36 2388 2388 7.77821147451249 8.44354665124794 4645 1531 "Expected"
"475" "s11" "26:35:44" "s11:t091" 91 "Crisp" "Comparison" "RtoL" "Small" "'Choose a square with fewer than 40 dots'" 41 2796 2796 7.9359451033537 7.77821147451249 2388 1748 "Expected"
"476" "s11" "36:45:54" "s11:t092" 92 "Vague" "Matching" "LtoR" "Small" "'Choose a square with about 40 dots'" 36 3313 3313 8.1056094022999 7.9359451033537 2796 1662 "Near"
"477" "s11" "06:15:24" "s11:t093" 93 "Vague" "Matching" "RtoL" "Large" "'Choose a square with about 20 dots'" 36 2234 2234 7.71154897962915 8.1056094022999 3313 673 "Expected"
"478" "s11" "16:25:34" "s11:t094" 94 "Crisp" "Comparison" "RtoL" "Small" "'Choose a square with fewer than 30 dots'" 41 3660 3660 8.20521842639541 7.71154897962915 2234 237 "Expected"
"479" "s11" "26:35:44" "s11:t095" 95 "Vague" "Comparison" "RtoL" "Large" "'Choose a square with far more than 30 dots'" 44 1905 1905 7.5522372875608 8.20521842639541 3660 1671 "Expected"
"480" "s11" "36:45:54" "s11:t096" 96 "Vague" "Matching" "RtoL" "Large" "'Choose a square with about 50 dots'" 36 4252 4252 8.35514473946184 7.5522372875608 1905 1732 "Near"
"481" "s11" "06:15:24" "s11:t097" 97 "Crisp" "Comparison" "LtoR" "Small" "'Choose a square with fewer than 20 dots'" 41 2842 2842 7.95226330865705 8.35514473946184 4252 1497 "Expected"
"482" "s11" "16:25:34" "s11:t098" 98 "Vague" "Matching" "RtoL" "Small" "'Choose a square with about 20 dots'" 36 1657 1657 7.41276401742656 7.95226330865705 2842 1549 "Expected"
"483" "s11" "26:35:44" "s11:t099" 99 "Vague" "Comparison" "RtoL" "Small" "'Choose a square with far fewer than 40 dots'" 45 1481 1481 7.3004728142678 7.41276401742656 1657 2924 "Expected"
"484" "s11" "36:45:54" "s11:t100" 100 "Vague" "Matching" "RtoL" "Small" "'Choose a square with about 40 dots'" 36 4061 4061 8.3091845276863 7.3004728142678 1481 1244 "Near"
"485" "s11" "06:15:24" "s11:t101" 101 "Vague" "Comparison" "RtoL" "Large" "'Choose a square with far more than 10 dots'" 44 4667 4667 8.44827174594982 8.3091845276863 4061 146 "Expected"
"486" "s11" "16:25:34" "s11:t102" 102 "Vague" "Matching" "LtoR" "Large" "'Choose a square with about 30 dots'" 36 4080 4080 8.31385226739821 8.44827174594982 4667 689 "Expected"
"487" "s11" "26:35:44" "s11:t103" 103 "Vague" "Matching" "LtoR" "Small" "'Choose a square with about 30 dots'" 36 2843 2843 7.952615111651 8.31385226739821 4080 2843 "Near"
"488" "s11" "36:45:54" "s11:t104" 104 "Crisp" "Comparison" "LtoR" "Small" "'Choose a square with fewer than 50 dots'" 41 2467 2467 7.81075811652936 7.952615111651 2843 3274 "Near"
"489" "s11" "06:15:24" "s11:t105" 105 "Vague" "Comparison" "RtoL" "Small" "'Choose a square with far fewer than 20 dots'" 45 1582 1582 7.3664451483276 7.81075811652936 2467 1601 "Expected"
"490" "s11" "16:25:34" "s11:t106" 106 "Vague" "Comparison" "RtoL" "Small" "'Choose a square with far fewer than 30 dots'" 45 1584 1584 7.36770857237437 7.3664451483276 1582 1844 "Expected"
"491" "s11" "26:35:44" "s11:t107" 107 "Vague" "Matching" "RtoL" "Small" "'Choose a square with about 30 dots'" 36 2216 2216 7.70345904786717 7.36770857237437 1584 3454 "Expected"
"492" "s11" "36:45:54" "s11:t108" 108 "Vague" "Comparison" "RtoL" "Large" "'Choose a square with far more than 40 dots'" 44 1740 1740 7.46164039220858 7.70345904786717 2216 3783 "Expected"
"493" "s11" "06:15:24" "s11:t109" 109 "Vague" "Comparison" "LtoR" "Small" "'Choose a square with far fewer than 20 dots'" 45 1580 1580 7.36518012602101 7.46164039220858 1740 2207 "Expected"
"494" "s11" "16:25:34" "s11:t110" 110 "Crisp" "Matching" "RtoL" "Small" "'Choose a square with 16 dots'" 30 1571 1571 7.35946763825562 7.36518012602101 1580 1938 "Expected"
"495" "s11" "26:35:44" "s11:t111" 111 "Vague" "Matching" "RtoL" "Large" "'Choose a square with about 40 dots'" 36 5533 5533 8.61848544289811 7.35946763825562 1571 2066 "Expected"
"496" "s11" "36:45:54" "s11:t112" 112 "Crisp" "Matching" "LtoR" "Small" "'Choose a square with 36 dots'" 30 2779 2779 7.9298464297425 8.61848544289811 5533 1093 "Near"
"497" "s11" "06:15:24" "s11:t113" 113 "Crisp" "Matching" "RtoL" "Large" "'Choose a square with 24 dots'" 30 4505 4505 8.41294317004244 7.9298464297425 2779 1206 "Expected"
"498" "s11" "16:25:34" "s11:t114" 114 "Crisp" "Matching" "LtoR" "Small" "'Choose a square with 16 dots'" 30 2366 2366 7.76895604453833 8.41294317004244 4505 1253 "Expected"
"499" "s11" "26:35:44" "s11:t115" 115 "Vague" "Matching" "LtoR" "Large" "'Choose a square with about 40 dots'" 36 2254 2254 7.72046169459972 7.76895604453833 2366 1169 "Expected"
"500" "s11" "36:45:54" "s11:t116" 116 "Crisp" "Comparison" "RtoL" "Small" "'Choose a square with fewer than 50 dots'" 41 3606 3606 8.19035440376326 7.72046169459972 2254 1483 "Expected"
"501" "s11" "06:15:24" "s11:t117" 117 "Vague" "Comparison" "LtoR" "Large" "'Choose a square with far more than 10 dots'" 44 1990 1990 7.59588991771854 8.19035440376326 3606 1815 "Expected"
"502" "s11" "16:25:34" "s11:t118" 118 "Crisp" "Matching" "RtoL" "Large" "'Choose a square with 34 dots'" 30 2458 2458 7.80710329012598 7.59588991771854 1990 1605 "Expected"
"503" "s11" "26:35:44" "s11:t119" 119 "Crisp" "Matching" "LtoR" "Large" "'Choose a square with 44 dots'" 30 3909 3909 8.27103686579295 7.80710329012598 2458 969 "Near"
"504" "s11" "36:45:54" "s11:t120" 120 "Vague" "Comparison" "RtoL" "Small" "'Choose a square with far fewer than 50 dots'" 45 1833 1833 7.5137092478397 8.27103686579295 3909 1215 "Expected"
"505" "s11" "06:15:24" "s11:t121" 121 "Vague" "Matching" "RtoL" "Small" "'Choose a square with about 10 dots'" 36 3849 3849 8.25556865328375 7.5137092478397 1833 575 "Expected"
"506" "s11" "16:25:34" "s11:t122" 122 "Crisp" "Comparison" "LtoR" "Large" "'Choose a square with more than 20 dots'" 40 2559 2559 7.84737183615979 8.25556865328375 3849 1910 "Expected"
"507" "s11" "26:35:44" "s11:t123" 123 "Vague" "Comparison" "LtoR" "Large" "'Choose a square with far more than 30 dots'" 44 2670 2670 7.8898337513943 7.84737183615979 2559 2730 "Expected"
"508" "s11" "36:45:54" "s11:t124" 124 "Vague" "Comparison" "LtoR" "Small" "'Choose a square with far fewer than 50 dots'" 45 3140 3140 8.0519780789023 7.8898337513943 2670 2357 "Expected"
"509" "s11" "06:15:24" "s11:t125" 125 "Crisp" "Matching" "LtoR" "Small" "'Choose a square with 6 dots'" 29 2379 2379 7.77443551030296 8.0519780789023 3140 171 "Expected"
"510" "s11" "16:25:34" "s11:t126" 126 "Vague" "Comparison" "RtoL" "Large" "'Choose a square with far more than 20 dots'" 44 1848 1848 7.52185925220163 7.77443551030296 2379 2076 "Expected"
"511" "s11" "26:35:44" "s11:t127" 127 "Crisp" "Matching" "LtoR" "Small" "'Choose a square with 26 dots'" 30 2056 2056 7.62851762657506 7.52185925220163 1848 1437 "Expected"
"512" "s11" "36:45:54" "s11:t128" 128 "Crisp" "Comparison" "LtoR" "Large" "'Choose a square with more than 40 dots'" 40 5715 5715 8.65084957622891 7.62851762657506 2056 2 "Expected"
"513" "s11" "06:15:24" "s11:t129" 129 "Crisp" "Comparison" "LtoR" "Small" "'Choose a square with fewer than 20 dots'" 41 2275 2275 7.72973533138505 8.65084957622891 5715 4678 "Expected"
"514" "s11" "16:25:34" "s11:t130" 130 "Crisp" "Matching" "RtoL" "Small" "'Choose a square with 16 dots'" 30 1623 1623 7.39203156751459 7.72973533138505 2275 1535 "Expected"
"515" "s11" "26:35:44" "s11:t131" 131 "Vague" "Comparison" "LtoR" "Large" "'Choose a square with far more than 30 dots'" 44 3396 3396 8.13035354743124 7.39203156751459 1623 2171 "Expected"
"516" "s11" "36:45:54" "s11:t132" 132 "Vague" "Matching" "LtoR" "Large" "'Choose a square with about 50 dots'" 36 3050 3050 8.02289686960146 8.13035354743124 3396 2792 "Expected"
"517" "s11" "06:15:24" "s11:t133" 133 "Vague" "Comparison" "LtoR" "Large" "'Choose a square with far more than 10 dots'" 44 1868 1868 7.53262361878879 8.02289686960146 3050 2994 "Expected"
"518" "s11" "16:25:34" "s11:t134" 134 "Crisp" "Comparison" "RtoL" "Small" "'Choose a square with fewer than 30 dots'" 41 3077 3077 8.03171037532204 7.53262361878879 1868 66 "Expected"
"519" "s11" "26:35:44" "s11:t135" 135 "Vague" "Matching" "LtoR" "Large" "'Choose a square with about 40 dots'" 36 1894 1894 7.54644627374602 8.03171037532204 3077 1485 "Expected"
"520" "s11" "36:45:54" "s11:t136" 136 "Crisp" "Matching" "RtoL" "Small" "'Choose a square with 36 dots'" 30 4083 4083 8.31458729131958 7.54644627374602 1894 1017 "Near"
"521" "s11" "06:15:24" "s11:t137" 137 "Crisp" "Comparison" "LtoR" "Large" "'Choose a square with more than 10 dots'" 40 2879 2879 7.96519829061218 8.31458729131958 4083 1735 "Expected"
"522" "s11" "16:25:34" "s11:t138" 138 "Vague" "Comparison" "LtoR" "Large" "'Choose a square with far more than 20 dots'" 44 2324 2324 7.7510451179718 7.96519829061218 2879 1767 "Expected"
"523" "s11" "26:35:44" "s11:t139" 139 "Crisp" "Matching" "RtoL" "Large" "'Choose a square with 44 dots'" 30 1558 1558 7.35115822643069 7.7510451179718 2324 1105 "Expected"
"524" "s11" "36:45:54" "s11:t140" 140 "Vague" "Matching" "RtoL" "Small" "'Choose a square with about 40 dots'" 36 4530 4530 8.41847721847708 7.35115822643069 1558 1392 "Near"
"525" "s11" "06:15:24" "s11:t141" 141 "Vague" "Comparison" "RtoL" "Small" "'Choose a square with far fewer than 20 dots'" 45 1921 1921 7.56060116276856 8.41847721847708 4530 541 "Expected"
"526" "s11" "16:25:34" "s11:t142" 142 "Crisp" "Matching" "RtoL" "Large" "'Choose a square with 34 dots'" 30 1845 1845 7.52023455647463 7.56060116276856 1921 1242 "Expected"
"527" "s11" "26:35:44" "s11:t143" 143 "Crisp" "Comparison" "LtoR" "Large" "'Choose a square with more than 30 dots'" 40 1742 1742 7.46278915741245 7.52023455647463 1845 961 "Expected"
"528" "s11" "36:45:54" "s11:t144" 144 "Crisp" "Matching" "LtoR" "Small" "'Choose a square with 36 dots'" 30 6149 6149 8.72404474595347 7.46278915741245 1742 213 "Near"
"529" "s11" "06:15:24" "s11:t145" 145 "Crisp" "Matching" "RtoL" "Small" "'Choose a square with 6 dots'" 29 1678 1678 7.42535788702715 8.72404474595347 6149 205 "Expected"
"530" "s11" "16:25:34" "s11:t146" 146 "Crisp" "Matching" "LtoR" "Small" "'Choose a square with 16 dots'" 30 1468 1468 7.29165620917446 7.42535788702715 1678 1169 "Expected"
"531" "s11" "26:35:44" "s11:t147" 147 "Vague" "Comparison" "LtoR" "Small" "'Choose a square with far fewer than 40 dots'" 45 2516 2516 7.83042561782033 7.29165620917446 1468 1175 "Expected"
"532" "s11" "36:45:54" "s11:t148" 148 "Crisp" "Comparison" "LtoR" "Large" "'Choose a square with more than 40 dots'" 40 1678 1678 7.42535788702715 7.83042561782033 2516 1353 "Expected"
"533" "s11" "06:15:24" "s11:t149" 149 "Vague" "Matching" "LtoR" "Large" "'Choose a square with about 20 dots'" 36 7166 7166 8.8771028978649 7.42535788702715 1678 2922 "Expected"
"534" "s11" "16:25:34" "s11:t150" 150 "Crisp" "Comparison" "RtoL" "Large" "'Choose a square with more than 20 dots'" 40 1599 1599 7.37713371283395 8.8771028978649 7166 1984 "Expected"
"535" "s11" "26:35:44" "s11:t151" 151 "Vague" "Matching" "RtoL" "Small" "'Choose a square with about 30 dots'" 36 9999 9999 9.21024036697585 7.37713371283395 1599 1006 "Far"
"536" "s11" "36:45:54" "s11:t152" 152 "Crisp" "Comparison" "LtoR" "Small" "'Choose a square with fewer than 50 dots'" 41 3448 3448 8.14554963178358 9.21024036697585 9999 2267 "Expected"
"537" "s11" "06:15:24" "s11:t153" 153 "Vague" "Matching" "RtoL" "Large" "'Choose a square with about 20 dots'" 36 2494 2494 7.82164312623998 8.14554963178358 3448 1818 "Expected"
"538" "s11" "16:25:34" "s11:t154" 154 "Vague" "Comparison" "RtoL" "Small" "'Choose a square with far fewer than 30 dots'" 45 2571 2571 7.85205020726589 7.82164312623998 2494 1 "Expected"
"539" "s11" "26:35:44" "s11:t155" 155 "Vague" "Matching" "LtoR" "Small" "'Choose a square with about 30 dots'" 36 3582 3582 8.18367658262066 7.85205020726589 2571 1918 "Near"
"540" "s11" "36:45:54" "s11:t156" 156 "Vague" "Comparison" "LtoR" "Large" "'Choose a square with far more than 40 dots'" 44 1979 1979 7.59034694560257 8.18367658262066 3582 1532 "Expected"
"541" "s11" "06:15:24" "s11:t157" 157 "Crisp" "Matching" "RtoL" "Large" "'Choose a square with 24 dots'" 30 2956 2956 7.99159228206809 7.59034694560257 1979 843 "Expected"
"542" "s11" "16:25:34" "s11:t158" 158 "Vague" "Matching" "RtoL" "Large" "'Choose a square with about 30 dots'" 36 8465 8465 9.04369529456724 7.99159228206809 2956 1041 "Expected"
"543" "s11" "26:35:44" "s11:t159" 159 "Crisp" "Matching" "LtoR" "Large" "'Choose a square with 44 dots'" 30 1629 1629 7.39572160860205 9.04369529456724 8465 1309 "Expected"
"544" "s11" "36:45:54" "s11:t160" 160 "Vague" "Comparison" "RtoL" "Large" "'Choose a square with far more than 40 dots'" 44 4791 4791 8.47449443688312 7.39572160860205 1629 697 "Expected"
"545" "s11" "06:15:24" "s11:t161" 161 "Crisp" "Matching" "LtoR" "Small" "'Choose a square with 6 dots'" 29 2348 2348 7.76131918094799 8.47449443688312 4791 1192 "Expected"
"546" "s11" "16:25:34" "s11:t162" 162 "Crisp" "Comparison" "LtoR" "Small" "'Choose a square with fewer than 30 dots'" 41 3779 3779 8.23721470334949 7.76131918094799 2348 583 "Expected"
"547" "s11" "26:35:44" "s11:t163" 163 "Vague" "Comparison" "RtoL" "Large" "'Choose a square with far more than 30 dots'" 44 2798 2798 7.93666015522543 8.23721470334949 3779 239 "Expected"
"548" "s11" "36:45:54" "s11:t164" 164 "Crisp" "Matching" "LtoR" "Large" "'Choose a square with 54 dots'" 30 1675 1675 7.42356844425917 7.93666015522543 2798 1025 "Expected"
"549" "s11" "06:15:24" "s11:t165" 165 "Vague" "Comparison" "RtoL" "Large" "'Choose a square with far more than 10 dots'" 44 2723 2723 7.90948949267376 7.42356844425917 1675 1357 "Expected"
"550" "s11" "16:25:34" "s11:t166" 166 "Crisp" "Matching" "LtoR" "Large" "'Choose a square with 34 dots'" 30 1456 1456 7.28344822875663 7.90948949267376 2723 1056 "Expected"
"551" "s11" "26:35:44" "s11:t167" 167 "Crisp" "Comparison" "RtoL" "Large" "'Choose a square with more than 30 dots'" 40 1448 1448 7.27793857294566 7.28344822875663 1456 731 "Expected"
"552" "s11" "36:45:54" "s11:t168" 168 "Crisp" "Comparison" "RtoL" "Small" "'Choose a square with fewer than 50 dots'" 41 1770 1770 7.47873482556787 7.27793857294566 1448 1763 "Expected"
"553" "s11" "06:15:24" "s11:t169" 169 "Crisp" "Matching" "LtoR" "Large" "'Choose a square with 24 dots'" 30 2813 2813 7.94200680848986 7.47873482556787 1770 1209 "Expected"
"554" "s11" "16:25:34" "s11:t170" 170 "Vague" "Comparison" "RtoL" "Large" "'Choose a square with far more than 20 dots'" 44 1419 1419 7.25770767716004 7.94200680848986 2813 984 "Expected"
"555" "s11" "26:35:44" "s11:t171" 171 "Vague" "Comparison" "RtoL" "Small" "'Choose a square with far fewer than 40 dots'" 45 1993 1993 7.59739632021279 7.25770767716004 1419 1895 "Expected"
"556" "s11" "36:45:54" "s11:t172" 172 "Crisp" "Matching" "RtoL" "Large" "'Choose a square with 54 dots'" 30 1460 1460 7.28619171470238 7.59739632021279 1993 1409 "Expected"
"557" "s11" "06:15:24" "s11:t173" 173 "Vague" "Matching" "LtoR" "Small" "'Choose a square with about 10 dots'" 36 7029 7029 8.85779972717591 7.28619171470238 1460 1575 "Expected"
"558" "s11" "16:25:34" "s11:t174" 174 "Vague" "Comparison" "LtoR" "Small" "'Choose a square with far fewer than 30 dots'" 45 2855 2855 7.95682712209011 8.85779972717591 7029 1476 "Expected"
"559" "s11" "26:35:44" "s11:t175" 175 "Crisp" "Matching" "RtoL" "Small" "'Choose a square with 26 dots'" 30 2673 2673 7.89095671613892 7.95682712209011 2855 774 "Expected"
